Target_Type	Trial_Type	Display_Size	Target	Response	Key_press	RT	Uncertainty	Time	Uncertainty	Duration	Uncertainty	ReqTime	ReqDur
disjunction	negative	15	Null	hit	F	24056	2	199311	1	24157	1	0	next
disjunction	negative	15	Null	hit	F	15842	2	248803	1	16001	1	0	next
disjunction	negative	30	Null	hit	F	16430	2	290139	1	16501	1	0	next
disjunction	negative	5	Null	hit	F	10754	2	331975	1	10834	1	0	next
disjunction	positive	15	S_green	incorrect	F	12344	2	368144	1	12501	1	0	next
disjunction	positive	5	X_blue	hit	J	7950	2	405980	1	8001	1	0	next
disjunction	positive	5	X_blue	hit	J	5174	2	439316	1	5334	1	0	next
disjunction	positive	15	S_green	incorrect	F	15312	2	469984	1	15501	1	0	next
disjunction	negative	5	Null	hit	F	53036	2	510820	1	53170	1	0	next
disjunction	negative	1	Null	hit	F	32613	2	589325	1	32669	1	0	next
disjunction	positive	15	X_blue	hit	J	6446	2	647329	1	6500	1	0	next
disjunction	negative	15	Null	hit	F	16374	2	679164	1	16501	1	0	next
disjunction	positive	30	S_green	incorrect	F	30383	2	721000	1	30502	1	0	next
disjunction	positive	5	S_green	hit	J	27826	2	776837	1	28002	1	0	next
disjunction	negative	15	Null	hit	F	21847	2	830174	1	22001	1	0	next
disjunction	positive	1	S_brown	hit	J	19310	2	877510	1	19501	1	0	next
disjunction	positive	1	S_green	hit	J	6956	2	922347	1	7000	1	0	next
disjunction	negative	15	Null	hit	F	24700	2	954682	1	24835	1	0	next
disjunction	negative	1	Null	hit	F	27972	2	1004852	1	28168	1	0	next
disjunction	negative	30	Null	hit	F	69671	2	1058355	1	69838	1	0	next
disjunction	positive	15	T_blue	hit	J	7142	2	1153528	1	7334	1	0	next
disjunction	positive	15	S_green	hit	J	25995	2	1186197	1	26168	1	0	next
disjunction	positive	15	T_blue	hit	J	6812	2	1237700	1	7000	1	0	next
disjunction	negative	15	Null	hit	F	17997	2	1270036	1	18168	1	0	next
disjunction	positive	5	X_blue	hit	J	5533	2	1313538	1	5667	1	0	next
disjunction	negative	30	Null	hit	F	30533	2	1344540	1	30669	1	0	next
disjunction	negative	5	Null	hit	F	12291	2	1400544	1	12334	1	0	next
disjunction	positive	15	X_blue	hit	J	5504	2	1438213	1	5667	1	0	next
disjunction	positive	1	S_green	hit	J	9543	2	1469215	1	9667	1	0	next
disjunction	positive	30	S_brown	hit	J	14860	2	1504217	1	15001	1	0	next
disjunction	positive	5	X_blue	hit	J	7006	2	1544553	1	7167	1	0	next
disjunction	positive	30	S_green	hit	J	11309	2	1577055	1	11501	1	0	next
disjunction	negative	5	Null	hit	F	10953	2	1613891	1	11001	1	0	next
disjunction	negative	15	Null	hit	F	13498	2	1650227	1	13668	1	0	next
disjunction	negative	5	Null	hit	F	6495	2	1689229	1	6667	1	0	next
disjunction	positive	30	T_blue	hit	J	4894	2	1721231	1	5000	1	0	next
disjunction	negative	5	Null	hit	F	15997	2	1751567	1	16168	1	0	next
disjunction	positive	1	S_brown	hit	J	7138	2	1793069	1	7334	1	0	next
disjunction	positive	5	S_green	hit	J	15107	2	1825738	1	15168	1	0	next
disjunction	positive	30	T_blue	hit	J	5645	2	1866241	1	5834	1	0	next
disjunction	positive	5	X_blue	hit	J	8721	2	1897409	1	8834	1	0	next
disjunction	negative	15	Null	hit	F	15833	2	1931578	1	16001	1	0	next
disjunction	positive	15	T_blue	hit	J	17855	2	1972914	1	18001	1	0	next
disjunction	negative	5	Null	hit	F	12120	2	2016250	1	12167	1	0	next
disjunction	positive	15	S_brown	incorrect	F	10622	2	2053753	1	10667	1	0	next
disjunction	positive	5	T_blue	hit	J	5496	2	2089755	1	5667	1	0	next
disjunction	positive	5	T_blue	hit	J	5535	2	2120757	1	5667	1	0	next
disjunction	positive	15	X_blue	hit	J	17737	2	2151759	1	17834	1	0	next
disjunction	negative	1	Null	hit	F	13286	2	2194928	1	13334	1	0	next
disjunction	negative	15	Null	incorrect	J	6302	2	2233598	1	6334	1	0	next
disjunction	negative	15	Null	hit	F	20711	2	2265266	1	20835	1	0	next
disjunction	positive	1	X_blue	hit	J	6385	2	2311436	1	6500	1	0	next
disjunction	negative	1	Null	incorrect	J	5108	2	2343271	1	5167	1	0	next
disjunction	positive	30	T_blue	hit	J	5327	2	2373773	1	5500	1	0	next
disjunction	positive	15	S_brown	hit	J	14011	2	2404609	1	14168	1	0	next
disjunction	positive	15	T_blue	hit	J	5075	2	2444111	1	5167	1	0	next
disjunction	positive	15	S_brown	hit	J	6728	2	2474613	1	6834	1	0	next
disjunction	positive	30	T_blue	hit	J	5286	2	2506782	1	5334	1	0	next
disjunction	positive	1	X_blue	hit	J	4854	2	2537450	1	5000	1	0	next
disjunction	negative	30	Null	hit	F	17398	2	2567786	1	17501	1	0	next
disjunction	positive	30	T_blue	hit	J	5127	2	2610622	1	5167	1	0	next
disjunction	positive	1	S_brown	hit	J	9182	2	2641124	1	9334	1	0	next
disjunction	positive	15	X_blue	hit	J	6036	2	2675793	1	6167	1	0	next
disjunction	positive	5	S_brown	hit	J	7816	2	2707295	1	8001	1	0	next
disjunction	negative	30	Null	hit	F	35441	2	2740630	1	35502	1	0	next
disjunction	positive	30	S_green	hit	J	8522	2	2801467	1	8667	1	0	next
disjunction	negative	1	Null	incorrect	J	6682	2	2835469	1	6834	1	0	next
disjunction	negative	1	Null	hit	F	9718	2	2867638	1	9834	1	0	next
disjunction	negative	30	Null	hit	F	14226	2	2902807	1	14334	1	0	next
disjunction	positive	1	T_blue	hit	J	6076	2	2942476	1	6167	1	0	next
disjunction	positive	30	S_green	incorrect	F	35696	2	2973978	1	35836	1	0	next
disjunction	positive	15	X_blue	hit	J	5411	2	3035149	1	5500	1	0	next
disjunction	positive	30	S_brown	hit	J	11376	2	3065984	1	11501	1	0	next
disjunction	negative	15	Null	hit	F	18057	2	3102820	1	18168	1	0	next
disjunction	positive	1	S_green	hit	J	7355	2	3146323	1	7500	1	0	next
disjunction	positive	5	S_brown	hit	J	5881	2	3179158	1	6000	1	0	next
disjunction	positive	15	S_green	incorrect	F	17432	2	3210494	1	17501	1	0	next
disjunction	positive	30	T_blue	hit	J	10273	2	3253330	1	10334	1	0	next
disjunction	negative	1	Null	hit	F	27884	2	3288999	1	28002	1	0	next
disjunction	negative	30	Null	hit	F	19028	2	3342335	1	19168	1	0	next
disjunction	positive	5	X_blue	hit	J	4930	2	3386838	1	5000	1	0	next
disjunction	positive	1	S_brown	hit	J	4192	2	3417174	1	4334	1	0	next
disjunction	negative	15	Null	hit	F	9888	2	3446842	1	10001	1	0	next
disjunction	negative	5	Null	hit	F	5433	2	3482178	1	5500	1	0	next
disjunction	negative	1	Null	hit	F	9317	2	3513013	1	9501	1	0	next
disjunction	negative	30	Null	hit	F	15283	2	3547849	1	15334	1	0	next
disjunction	positive	1	S_green	hit	J	6456	2	3588518	1	6500	1	0	next
disjunction	positive	30	S_green	hit	J	8541	2	3620353	1	8667	1	0	next
disjunction	positive	30	T_blue	hit	J	5415	2	3654355	1	5500	1	0	next
disjunction	negative	5	Null	hit	F	23863	2	3685191	1	24002	1	0	next
disjunction	positive	1	S_green	hit	J	10049	2	3734527	1	10167	1	0	next
disjunction	positive	5	T_blue	hit	J	5584	2	3770029	1	5667	1	0	next
disjunction	positive	1	T_blue	hit	J	5144	2	3801031	1	5334	1	0	next
disjunction	negative	15	Null	hit	F	8080	2	3831700	1	8167	1	0	next
disjunction	negative	30	Null	hit	F	14897	2	3865202	1	15001	1	0	next
disjunction	negative	5	Null	hit	F	6560	2	3905538	1	6667	1	0	next
disjunction	negative	5	Null	hit	F	12321	2	3937540	1	12501	1	0	next
disjunction	negative	30	Null	hit	F	16248	2	3975376	1	16334	1	0	next
disjunction	positive	1	S_brown	hit	J	5137	2	4017045	1	5167	1	0	next
disjunction	negative	15	Null	hit	F	12234	2	4047547	1	12334	1	0	next
disjunction	negative	5	Null	hit	F	5288	2	4085216	1	5334	1	0	next
disjunction	negative	5	Null	hit	F	4857	2	4115885	1	5000	1	0	next
disjunction	positive	5	X_blue	hit	J	7647	2	4146220	1	7834	1	0	next
disjunction	positive	5	X_blue	hit	J	5676	2	4179389	1	5834	1	0	next
disjunction	positive	30	S_brown	hit	J	6347	2	4210558	1	6500	1	0	next
disjunction	positive	5	S_brown	incorrect	F	4113	2	4242393	1	4167	1	0	next
disjunction	positive	30	S_brown	hit	J	6294	2	4271895	1	6334	1	0	next
disjunction	positive	1	S_brown	hit	J	5825	2	4303564	1	6000	1	0	next
disjunction	negative	15	Null	incorrect	J	13850	2	4334899	1	14001	1	0	next
disjunction	positive	1	X_blue	hit	J	5237	2	4374235	1	5334	1	0	next
disjunction	negative	1	Null	hit	F	8970	2	4404904	1	9167	1	0	next
disjunction	negative	30	Null	hit	F	24225	2	4439406	1	24335	1	0	next
disjunction	negative	1	Null	hit	F	8158	2	4489076	1	8334	1	0	next
disjunction	negative	30	Null	hit	F	11129	2	4522744	1	11167	1	0	next
disjunction	negative	30	Null	hit	F	14471	2	4559247	1	14668	1	0	next
disjunction	negative	5	Null	hit	F	7589	2	4599249	1	7667	1	0	next
disjunction	negative	5	Null	hit	F	5470	2	4632252	1	5667	1	0	next
disjunction	negative	1	Null	hit	F	6783	2	4663253	1	6834	1	0	next
disjunction	negative	30	Null	hit	F	15578	2	4695422	1	15668	1	0	next
disjunction	negative	5	Null	hit	F	4816	2	4736425	1	5000	1	0	next
disjunction	negative	15	Null	hit	F	5040	2	4766760	1	5167	1	0	next
disjunction	negative	30	Null	hit	F	5742	2	4797262	1	5834	1	0	next
disjunction	negative	1	Null	hit	F	4810	2	4828431	1	5000	1	0	next
disjunction	negative	30	Null	hit	F	8881	2	4858766	1	9001	1	0	next
disjunction	negative	1	Null	hit	F	7341	2	4893102	1	7500	1	0	next
disjunction	negative	1	Null	hit	F	5866	2	4925937	1	6000	1	0	next
disjunction	negative	1	Null	hit	F	4933	2	4957272	1	5000	1	0	next
disjunction	negative	1	Null	hit	F	3400	2	4987608	1	3500	1	0	next
conjunction	negative	5	Null	hit	F	7748	2	5102782	1	7834	1	0	next
conjunction	negative	30	Null	hit	F	11862	2	5135950	1	12001	1	0	next
conjunction	negative	30	Null	hit	F	10524	2	5173286	1	10667	1	0	next
conjunction	negative	5	Null	hit	F	9561	2	5209289	1	9667	1	0	next
conjunction	negative	1	Null	hit	F	5124	2	5244291	1	5167	1	0	next
conjunction	negative	30	Null	hit	F	9339	2	5274793	1	9501	1	0	next
conjunction	positive	30	T_green	incorrect	F	9705	2	5309628	1	9834	1	0	next
conjunction	positive	30	T_green	hit	J	15017	2	5344797	1	15168	1	0	next
conjunction	positive	5	T_green	hit	J	12276	2	5385300	1	12334	1	0	next
conjunction	positive	5	T_green	hit	J	15570	2	5422969	1	15668	1	0	next
conjunction	positive	1	T_green	hit	J	5608	2	5463972	1	5667	1	0	next
conjunction	negative	30	Null	hit	F	11568	2	5494974	1	11667	1	0	next
conjunction	negative	1	Null	hit	F	7204	2	5531976	1	7334	1	0	next
conjunction	positive	15	T_green	hit	J	8616	2	5564645	1	8667	1	0	next
conjunction	positive	5	T_green	incorrect	F	6458	2	5598647	1	6500	1	0	next
conjunction	positive	15	T_green	hit	J	14944	2	5630482	1	15001	1	0	next
conjunction	negative	5	Null	hit	F	5649	2	5670818	1	5834	1	0	next
conjunction	positive	1	T_green	incorrect	F	5196	2	5701987	1	5334	1	0	next
conjunction	negative	15	Null	hit	F	13729	2	5732655	1	13834	1	0	next
conjunction	positive	1	T_green	hit	J	5604	2	5771825	1	5667	1	0	next
conjunction	negative	15	Null	hit	F	12200	2	5802827	1	12334	1	0	next
conjunction	negative	5	Null	hit	F	6373	2	5840496	1	6500	1	0	next
conjunction	positive	15	T_green	incorrect	F	10700	2	5872331	1	10834	1	0	next
conjunction	negative	15	Null	hit	F	12934	2	5908500	1	13001	1	0	next
conjunction	negative	30	Null	hit	F	16514	2	5946836	1	16668	1	0	next
conjunction	negative	5	Null	hit	F	7632	2	5988839	1	7667	1	0	next
conjunction	positive	1	T_green	hit	J	5031	2	6021841	1	5167	1	0	next
conjunction	negative	30	Null	hit	F	13573	2	6052343	1	13668	1	0	next
conjunction	positive	30	T_green	incorrect	F	10252	2	6091345	1	10334	1	0	next
conjunction	negative	30	Null	hit	F	29141	2	6127014	1	29335	1	0	next
conjunction	negative	1	Null	hit	F	6471	2	6181684	1	6500	1	0	next
conjunction	negative	1	Null	hit	F	5041	2	6213520	1	5167	1	0	next
conjunction	negative	1	Null	incorrect	J	6216	2	6244022	1	6334	1	0	next
conjunction	positive	15	T_green	hit	J	10551	2	6275690	1	10667	1	0	next
conjunction	negative	30	Null	hit	F	13585	2	6311693	1	13668	1	0	next
conjunction	positive	30	T_green	incorrect	F	10426	2	6350695	1	10501	1	0	next
conjunction	positive	1	T_green	hit	J	6273	2	6386531	1	6334	1	0	next
conjunction	negative	5	Null	hit	F	8363	2	6418199	1	8501	1	0	next
conjunction	positive	1	T_green	hit	J	7652	2	6452035	1	7834	1	0	next
conjunction	positive	1	T_green	hit	J	4558	2	6485204	1	4667	1	0	next
conjunction	positive	30	T_green	hit	J	19041	2	6515206	1	19168	1	0	next
conjunction	negative	5	Null	hit	F	8462	2	6559709	1	8501	1	0	next
conjunction	negative	30	Null	hit	F	22146	2	6593544	1	22335	1	0	next
conjunction	negative	1	Null	hit	F	7913	2	6641214	1	8001	1	0	next
conjunction	negative	15	Null	hit	F	16659	2	6674549	1	16834	1	0	next
conjunction	positive	5	T_green	hit	J	10652	2	6716719	1	10834	1	0	next
conjunction	positive	1	T_green	hit	J	5368	2	6752888	1	5500	1	0	next
conjunction	positive	1	T_green	hit	J	4929	2	6783723	1	5000	1	0	next
conjunction	negative	30	Null	hit	F	23878	2	6814058	1	24002	1	0	next
conjunction	positive	30	T_green	incorrect	F	15340	2	6863395	1	15501	1	0	next
conjunction	positive	15	T_green	hit	J	11946	2	6904231	1	12001	1	0	next
conjunction	negative	1	Null	hit	F	6770	2	6941566	1	6834	1	0	next
conjunction	negative	1	Null	hit	F	7244	2	6973735	1	7334	1	0	next
conjunction	positive	5	T_green	hit	J	7217	2	7006404	1	7334	1	0	next
conjunction	positive	1	T_green	hit	J	4308	2	7039073	1	4500	1	0	next
conjunction	negative	1	Null	incorrect	J	3750	2	7068908	1	3834	1	0	next
conjunction	positive	30	T_green	incorrect	F	25783	2	7098076	1	25835	1	0	next
conjunction	positive	15	T_green	incorrect	F	27896	2	7149246	1	28002	1	0	next
conjunction	negative	5	Null	hit	F	9925	2	7202583	1	10001	1	0	next
conjunction	positive	15	T_green	hit	J	16505	2	7237919	1	16668	1	0	next
conjunction	positive	5	T_green	hit	J	9064	2	7279921	1	9167	1	0	next
conjunction	negative	30	Null	hit	F	19521	2	7314424	1	19668	1	0	next
conjunction	negative	1	Null	hit	F	8762	2	7359427	1	8834	1	0	next
conjunction	positive	1	T_green	hit	J	4191	2	7393595	1	4334	1	0	next
conjunction	negative	1	Null	incorrect	J	5730	2	7423264	1	5834	1	0	next
conjunction	negative	5	Null	hit	F	10557	2	7454433	1	10667	1	0	next
conjunction	negative	1	Null	hit	F	7353	2	7490435	1	7500	1	0	next
conjunction	negative	5	Null	hit	F	13401	2	7523270	1	13501	1	0	next
conjunction	positive	1	T_green	hit	J	7364	2	7562106	1	7500	1	0	next
conjunction	negative	30	Null	hit	F	19494	2	7594942	1	19668	1	0	next
conjunction	positive	30	T_green	incorrect	F	22490	2	7639945	1	22668	1	0	next
conjunction	positive	15	T_green	hit	J	16570	2	7687948	1	16668	1	0	next
conjunction	positive	30	T_green	hit	J	14885	2	7729950	1	15001	1	0	next
conjunction	positive	1	T_green	hit	J	4953	2	7770286	1	5000	1	0	next
conjunction	negative	5	Null	hit	F	6935	2	7800621	1	7000	1	0	next
conjunction	positive	15	T_green	incorrect	F	7242	2	7832957	1	7334	1	0	next
conjunction	negative	5	Null	hit	F	14736	2	7865626	1	14834	1	0	next
conjunction	positive	1	T_green	hit	J	5286	2	7905795	1	5334	1	0	next
conjunction	negative	30	Null	hit	F	24378	2	7936464	1	24502	1	0	next
conjunction	negative	15	Null	hit	F	16945	2	7986300	1	17001	1	0	next
conjunction	negative	5	Null	hit	F	10766	2	8028636	1	10834	1	0	next
conjunction	negative	30	Null	hit	F	21481	2	8064805	1	21668	1	0	next
conjunction	positive	15	T_green	incorrect	F	12082	2	8111808	1	12167	1	0	next
conjunction	negative	15	Null	hit	F	20017	2	8149311	1	20168	1	0	next
conjunction	negative	5	Null	hit	F	16276	2	8194813	1	16334	1	0	next
conjunction	negative	5	Null	hit	F	9645	2	8236483	1	9834	1	0	next
conjunction	positive	15	T_green	hit	J	13039	2	8271652	1	13167	1	0	next
conjunction	negative	30	Null	hit	F	9101	2	8310154	1	9167	1	0	next
conjunction	positive	15	T_green	incorrect	F	9157	2	8344656	1	9334	1	0	next
conjunction	negative	30	Null	hit	F	22646	2	8379325	1	22835	1	0	next
conjunction	positive	30	T_green	hit	J	11121	2	8427495	1	11167	1	0	next
conjunction	positive	1	T_green	hit	J	7577	2	8463997	1	7667	1	0	next
conjunction	negative	15	Null	hit	F	7536	2	8497000	1	7667	1	0	next
conjunction	negative	15	Null	hit	F	20298	2	8530002	1	20335	1	0	next
conjunction	positive	1	T_green	hit	J	6466	2	8575671	1	6500	1	0	next
conjunction	positive	15	T_green	incorrect	F	10634	2	8607507	1	10667	1	0	next
conjunction	negative	1	Null	hit	F	13189	2	8643509	1	13334	1	0	next
conjunction	positive	15	T_green	incorrect	F	12925	2	8682178	1	13001	1	0	next
conjunction	positive	30	T_green	hit	J	22113	2	8720514	1	22168	1	0	next
conjunction	positive	15	T_green	hit	J	11089	2	8768017	1	11167	1	0	next
conjunction	negative	5	Null	hit	F	7067	2	8804519	1	7167	1	0	next
conjunction	positive	5	T_green	hit	J	7365	2	8837021	1	7501	1	0	next
conjunction	positive	5	T_green	hit	J	7171	2	8869857	1	7334	1	0	next
conjunction	negative	1	Null	hit	F	9379	2	8902526	1	9501	1	0	next
conjunction	negative	1	Null	incorrect	J	5425	2	8937361	1	5500	1	0	next
conjunction	negative	15	Null	hit	F	13472	2	8968196	1	13668	1	0	next
conjunction	negative	15	Null	hit	F	14472	2	9007199	1	14668	1	0	next
conjunction	negative	15	Null	hit	F	14787	2	9047202	1	14834	1	0	next
conjunction	positive	30	T_green	hit	J	16382	2	9087371	1	16501	1	0	next
conjunction	positive	30	T_green	hit	J	12623	2	9129207	1	12667	1	0	next
conjunction	positive	5	T_green	hit	J	9342	2	9167209	1	9501	1	0	next
conjunction	positive	15	T_green	hit	J	11951	2	9202045	1	12001	1	0	next
conjunction	negative	15	Null	hit	F	9492	2	9239380	1	9667	1	0	next
conjunction	positive	5	T_green	hit	J	8412	2	9274383	1	8501	1	0	next
conjunction	negative	1	Null	hit	F	7696	2	9308218	1	7834	1	0	next
conjunction	positive	30	T_green	hit	J	9889	2	9341387	1	10001	1	0	next
conjunction	negative	15	Null	hit	F	9758	2	9376723	1	9834	1	0	next
conjunction	positive	30	T_green	hit	J	11230	2	9411892	1	11334	1	0	next
conjunction	negative	15	Null	hit	F	7518	2	9448561	1	7667	1	0	next
conjunction	negative	15	Null	hit	F	11479	2	9481563	1	11667	1	0	next
conjunction	negative	15	Null	hit	F	8077	2	9518565	1	8167	1	0	next
conjunction	positive	30	T_green	incorrect	F	16014	2	9552067	1	16168	1	0	next
conjunction	positive	5	T_green	hit	J	12112	2	9593570	1	12167	1	0	next
conjunction	positive	5	T_green	hit	J	12055	2	9631072	1	12167	1	0	next
conjunction	positive	5	T_green	hit	J	14392	2	9668575	1	14501	1	0	next
conjunction	positive	5	T_green	hit	J	7354	2	9708411	1	7500	1	0	next
conjunction	positive	5	T_green	hit	J	6200	2	9741246	1	6334	1	0	next
conjunction	positive	5	T_green	hit	J	8932	2	9772915	1	9001	1	0	next
conjunction	negative	1	Null	hit	F	6817	2	9917757	1	7000	1	0	next
conjunction	negative	15	Null	hit	F	16238	2	9950093	1	16334	1	0	next
conjunction	negative	30	Null	hit	F	24812	2	9991762	1	25002	1	0	next
conjunction	positive	1	T_green	hit	J	3919	2	10042099	1	4000	1	0	next
conjunction	negative	1	Null	hit	F	6264	2	10071434	1	6334	1	0	next
conjunction	negative	15	Null	hit	F	10753	2	10103103	1	10834	1	0	next
conjunction	negative	5	Null	hit	F	5784	2	10139272	1	5834	1	0	next
conjunction	positive	1	T_green	hit	J	5017	2	10170440	1	5167	1	0	next
conjunction	positive	1	T_green	hit	J	4438	2	10200942	1	4500	1	0	next
conjunction	positive	15	T_green	incorrect	F	5965	2	10230777	1	6000	1	0	next
conjunction	positive	30	T_green	hit	J	11266	2	10262113	1	11334	1	0	next
conjunction	negative	30	Null	hit	F	21643	2	10298782	1	21835	1	0	next
conjunction	positive	5	T_green	hit	J	9351	2	10345952	1	9501	1	0	next
conjunction	negative	1	Null	hit	F	6355	2	10380787	1	6500	1	0	next
conjunction	negative	1	Null	hit	F	5560	2	10412623	1	5667	1	0	next
conjunction	positive	15	T_green	incorrect	F	6079	2	10443624	1	6167	1	0	next
conjunction	positive	30	T_green	hit	J	7058	2	10475127	1	7167	1	0	next
conjunction	negative	15	Null	hit	F	12158	2	10507629	1	12334	1	0	next
conjunction	positive	15	T_green	hit	J	6492	2	10545298	1	6667	1	0	next
conjunction	positive	30	T_green	incorrect	F	19129	2	10577300	1	19168	1	0	next
conjunction	negative	30	Null	incorrect	J	19909	2	10621803	1	20001	1	0	next
conjunction	positive	1	T_green	hit	J	5293	2	10667139	1	5334	1	0	next
conjunction	negative	15	Null	hit	F	13822	2	10697807	1	14001	1	0	next
conjunction	negative	5	Null	hit	F	5214	2	10737143	1	5334	1	0	next
conjunction	positive	1	T_green	hit	J	5104	2	10767812	1	5167	1	0	next
conjunction	negative	5	Null	hit	F	5639	2	10798314	1	5834	1	0	next
conjunction	negative	15	Null	hit	F	11756	2	10829483	1	11834	1	0	next
conjunction	negative	1	Null	hit	F	6102	2	10866652	1	6167	1	0	next
conjunction	positive	1	T_green	hit	J	5806	2	10898154	1	6000	1	0	next
conjunction	positive	30	T_green	hit	J	8390	2	10929489	1	8501	1	0	next
conjunction	negative	5	Null	hit	F	4953	2	10963325	1	5000	1	0	next
conjunction	positive	1	T_green	hit	J	6462	2	10993660	1	6500	1	0	next
conjunction	positive	30	T_green	incorrect	F	15106	2	11025495	1	15168	1	0	next
conjunction	negative	30	Null	hit	F	21806	2	11065998	1	22001	1	0	next
conjunction	negative	15	Null	hit	F	12867	2	11113334	1	13001	1	0	next
conjunction	positive	30	T_green	incorrect	F	17416	2	11151670	1	17501	1	0	next
conjunction	positive	5	T_green	hit	J	8176	2	11194506	1	8334	1	0	next
conjunction	negative	1	Null	hit	F	7309	2	11228175	1	7500	1	0	next
conjunction	positive	5	T_green	hit	J	5676	2	11261010	1	5834	1	0	next
conjunction	negative	30	Null	hit	F	10346	2	11292179	1	10501	1	0	next
conjunction	positive	1	T_green	hit	J	4755	2	11328015	1	4834	1	0	next
conjunction	positive	15	T_green	hit	J	6586	2	11358183	1	6667	1	0	next
conjunction	negative	1	Null	hit	F	5467	2	11390185	1	5500	1	0	next
conjunction	positive	5	T_green	hit	J	5028	2	11421021	1	5167	1	0	next
conjunction	negative	1	Null	hit	F	5088	2	11451522	1	5167	1	0	next
conjunction	negative	15	Null	hit	F	6909	2	11482024	1	7000	1	0	next
conjunction	positive	15	T_green	incorrect	F	6417	2	11514360	1	6500	1	0	next
conjunction	positive	15	T_green	hit	J	6257	2	11546195	1	6334	1	0	next
conjunction	negative	1	Null	hit	F	6592	2	11577864	1	6667	1	0	next
conjunction	positive	5	T_green	hit	J	4833	2	11609866	1	5000	1	0	next
conjunction	negative	5	Null	hit	F	7617	2	11640201	1	7667	1	0	next
conjunction	negative	1	Null	hit	F	6454	2	11673203	1	6500	1	0	next
conjunction	positive	30	T_green	incorrect	F	16697	2	11705039	1	16834	1	0	next
conjunction	negative	5	Null	hit	F	7011	2	11747208	1	7167	1	0	next
conjunction	positive	30	T_green	incorrect	F	23791	2	11779710	1	23835	1	0	next
conjunction	negative	5	Null	hit	F	13821	2	11828880	1	14001	1	0	next
conjunction	positive	15	T_green	incorrect	F	24729	2	11868216	1	24835	1	0	next
conjunction	positive	1	T_green	hit	J	5918	2	11918386	1	6000	1	0	next
conjunction	negative	15	Null	hit	F	15861	2	11949721	1	16001	1	0	next
conjunction	positive	1	T_green	hit	J	5887	2	11991057	1	6000	1	0	next
conjunction	positive	1	T_green	hit	J	5111	2	12022392	1	5167	1	0	next
conjunction	positive	1	T_green	hit	J	4053	2	12052894	1	4167	1	0	next
conjunction	negative	5	Null	hit	F	6874	2	12082396	1	7000	1	0	next
conjunction	positive	15	T_green	incorrect	F	14057	2	12114732	1	14168	1	0	next
conjunction	negative	1	Null	incorrect	J	5916	2	12154234	1	6000	1	0	next
conjunction	positive	5	T_green	hit	J	9142	2	12185570	1	9334	1	0	next
conjunction	negative	30	Null	hit	F	22152	2	12220239	1	22335	1	0	next
conjunction	negative	15	Null	hit	F	15446	2	12267908	1	15501	1	0	next
conjunction	negative	1	Null	hit	F	8686	2	12308744	1	8834	1	0	next
conjunction	positive	1	T_green	hit	J	5882	2	12342913	1	6000	1	0	next
conjunction	positive	5	T_green	hit	J	9908	2	12374248	1	10001	1	0	next
conjunction	negative	30	Null	hit	F	17293	2	12409584	1	17334	1	0	next
conjunction	negative	30	Null	hit	F	13828	2	12452253	1	14001	1	0	next
conjunction	positive	5	T_green	hit	J	5686	2	12491589	1	5834	1	0	next
conjunction	positive	15	T_green	hit	J	12281	2	12522758	1	12334	1	0	next
conjunction	negative	5	Null	hit	F	9171	2	12560427	1	9334	1	0	next
conjunction	positive	15	T_green	hit	J	5702	2	12595096	1	5834	1	0	next
conjunction	negative	30	Null	hit	F	17899	2	12626265	1	18001	1	0	next
conjunction	positive	30	T_green	hit	J	7200	2	12669601	1	7334	1	0	next
conjunction	negative	5	Null	hit	F	7654	2	12702269	1	7834	1	0	next
conjunction	negative	5	Null	hit	F	6489	2	12735438	1	6667	1	0	next
conjunction	negative	5	Null	hit	F	5205	2	12767440	1	5334	1	0	next
conjunction	positive	15	T_green	hit	J	9900	2	12798109	1	10001	1	0	next
conjunction	positive	5	T_green	hit	J	5763	2	12833445	1	5834	1	0	next
conjunction	negative	1	Null	hit	F	5793	2	12864613	1	5834	1	0	next
conjunction	negative	5	Null	hit	F	8710	2	12895782	1	8834	1	0	next
conjunction	negative	5	Null	hit	F	7336	2	12929951	1	7501	1	0	next
conjunction	negative	5	Null	hit	F	5863	2	12962786	1	6000	1	0	next
conjunction	positive	5	T_green	hit	J	6528	2	12994122	1	6667	1	0	next
conjunction	positive	30	T_green	hit	J	7485	2	13026124	1	7667	1	0	next
conjunction	positive	15	T_green	hit	J	7605	2	13059126	1	7667	1	0	next
conjunction	negative	5	Null	incorrect	J	8364	2	13092128	1	8501	1	0	next
conjunction	positive	1	T_green	hit	J	5408	2	13125963	1	5500	1	0	next
conjunction	negative	30	Null	hit	F	19215	2	13156799	1	19335	1	0	next
conjunction	positive	15	T_green	hit	J	5749	2	13201468	1	5834	1	0	next
conjunction	positive	15	T_green	incorrect	F	9298	2	13232637	1	9334	1	0	next
conjunction	negative	30	Null	hit	F	32391	2	13267306	1	32502	1	0	next
conjunction	negative	1	Null	hit	F	6876	2	13325143	1	7000	1	0	next
conjunction	positive	30	T_green	hit	J	7020	2	13357478	1	7167	1	0	next
conjunction	positive	15	T_green	hit	J	5879	2	13389980	1	6000	1	0	next
conjunction	positive	1	T_green	hit	J	5749	2	13421316	1	5834	1	0	next
conjunction	negative	1	Null	hit	F	6900	2	13452484	1	7000	1	0	next
conjunction	negative	30	Null	hit	F	24323	2	13484820	1	24502	1	0	next
conjunction	positive	5	T_green	hit	J	4726	2	13534656	1	4834	1	0	next
conjunction	negative	30	Null	hit	F	8641	2	13564825	1	8834	1	0	next
conjunction	negative	1	Null	hit	F	5669	2	13598994	1	5834	1	0	next
conjunction	positive	30	T_green	incorrect	F	16582	2	13630162	1	16668	1	0	next
conjunction	negative	15	Null	hit	F	15540	2	13672165	1	15668	1	0	next
conjunction	positive	15	T_green	hit	J	10378	2	13713168	1	10501	1	0	next
conjunction	positive	1	T_green	hit	J	7184	2	13749003	1	7334	1	0	next
conjunction	negative	30	Null	hit	F	12281	2	13781672	1	12334	1	0	next
conjunction	positive	30	T_green	hit	J	11093	2	13819341	1	11167	1	0	next
conjunction	positive	5	T_green	hit	J	7387	2	13855844	1	7500	1	0	next
conjunction	positive	5	T_green	hit	J	4796	2	13888679	1	4834	1	0	next
conjunction	negative	30	Null	hit	F	24069	2	13918848	1	24168	1	0	next
conjunction	negative	30	Null	hit	F	19363	2	13968351	1	19501	1	0	next
conjunction	positive	30	T_green	incorrect	F	26848	2	14013187	1	27002	1	0	next
conjunction	positive	30	T_green	hit	J	10192	2	14065524	1	10334	1	0	next
conjunction	positive	30	T_green	incorrect	F	14683	2	14101193	1	14834	1	0	next
conjunction	positive	5	T_green	hit	J	5560	2	14141362	1	5667	1	0	next
conjunction	negative	15	Null	hit	F	21921	2	14172364	1	22001	1	0	next
conjunction	positive	5	T_green	hit	J	9303	2	14219700	1	9334	1	0	next
conjunction	positive	5	T_green	hit	J	6313	2	14254369	1	6500	1	0	next
conjunction	negative	15	Null	hit	F	15121	2	14286204	1	15168	1	0	next
conjunction	negative	15	Null	hit	F	14939	2	14326707	1	15001	1	0	next
conjunction	negative	15	Null	hit	F	16842	2	14367043	1	17001	1	0	next
conjunction	negative	15	Null	hit	F	10989	2	14409379	1	11167	1	0	next
conjunction	negative	15	Null	hit	F	6968	2	14445881	1	7000	1	0	next
disjunction	negative	1	Null	hit	F	8092	2	14685563	1	8167	1	0	next
disjunction	negative	30	Null	hit	F	8830	2	14719066	1	9001	1	0	next
disjunction	negative	1	Null	hit	F	5532	2	14753401	1	5667	1	0	next
disjunction	positive	15	S_green	incorrect	F	15172	2	14784403	1	15334	1	0	next
disjunction	negative	30	Null	hit	F	24265	2	14825072	1	24335	1	0	next
disjunction	positive	5	S_brown	hit	J	19395	2	14874742	1	19501	1	0	next
disjunction	negative	30	Null	hit	F	29599	2	14919578	1	29669	1	0	next
disjunction	negative	15	Null	hit	F	17797	2	14974582	1	17834	1	0	next
disjunction	positive	5	S_green	hit	J	7911	2	15017751	1	8001	1	0	next
disjunction	positive	1	X_blue	hit	J	17295	2	15051087	1	17334	1	0	next
disjunction	positive	30	S_green	hit	J	19111	2	15093756	1	19168	1	0	next
disjunction	negative	15	Null	hit	F	6930	2	15138259	1	7000	1	0	next
disjunction	negative	30	Null	hit	F	12671	2	15170595	1	12834	1	0	next
disjunction	negative	15	Null	hit	F	9223	2	15208764	1	9334	1	0	next
disjunction	negative	1	Null	hit	F	7353	2	15243433	1	7500	1	0	next
disjunction	positive	30	T_blue	hit	J	6678	2	15276268	1	6834	1	0	next
disjunction	positive	5	T_blue	hit	J	4434	2	15308437	1	4500	1	0	next
disjunction	negative	15	Null	hit	F	12677	2	15338272	1	12834	1	0	next
disjunction	negative	30	Null	hit	F	7148	2	15376441	1	7334	1	0	next
disjunction	negative	30	Null	hit	F	9360	2	15409110	1	9501	1	0	next
disjunction	negative	30	Null	hit	F	5887	2	15443945	1	6000	1	0	next
disjunction	positive	30	S_green	hit	J	8952	2	15475281	1	9001	1	0	next
disjunction	negative	30	Null	hit	F	9660	2	15509616	1	9834	1	0	next
disjunction	positive	30	S_green	hit	J	9049	2	15544785	1	9167	1	0	next
disjunction	positive	15	S_green	incorrect	F	9111	2	15579287	1	9167	1	0	next
disjunction	negative	15	Null	hit	F	11244	2	15613790	1	11334	1	0	next
disjunction	negative	15	Null	hit	F	6101	2	15650459	1	6167	1	0	next
disjunction	negative	5	Null	hit	F	5796	2	15681961	1	5834	1	0	next
disjunction	positive	30	S_green	hit	J	5988	2	15713129	1	6167	1	0	next
disjunction	negative	5	Null	hit	F	9527	2	15744631	1	9667	1	0	next
disjunction	positive	30	S_green	hit	J	5885	2	15779634	1	6000	1	0	next
disjunction	negative	1	Null	hit	F	6391	2	15810969	1	6500	1	0	next
disjunction	positive	5	X_blue	hit	J	5279	2	15842804	1	5334	1	0	next
disjunction	negative	1	Null	hit	F	5008	2	15873473	1	5167	1	0	next
disjunction	positive	15	X_blue	hit	J	4908	2	15903975	1	5000	1	0	next
disjunction	negative	15	Null	hit	F	8013	2	15934310	1	8167	1	0	next
disjunction	negative	15	Null	hit	F	8916	2	15967812	1	9001	1	0	next
disjunction	positive	15	S_green	hit	J	5937	2	16002148	1	6000	1	0	next
disjunction	negative	15	Null	hit	F	6126	2	16033483	1	6167	1	0	next
disjunction	negative	1	Null	hit	F	5182	2	16064985	1	5334	1	0	next
disjunction	positive	5	S_green	hit	J	6834	2	16095654	1	7000	1	0	next
disjunction	positive	5	T_blue	hit	J	5059	2	16127989	1	5167	1	0	next
disjunction	negative	5	Null	hit	F	7198	2	16158491	1	7334	1	0	next
disjunction	positive	5	X_blue	hit	J	4612	2	16191160	1	4667	1	0	next
disjunction	negative	1	Null	hit	F	6288	2	16221162	1	6334	1	0	next
disjunction	negative	5	Null	hit	F	6620	2	16252831	1	6667	1	0	next
disjunction	positive	5	S_brown	hit	J	5500	2	16284833	1	5667	1	0	next
disjunction	positive	30	T_blue	hit	J	7141	2	16315835	1	7334	1	0	next
disjunction	positive	1	S_green	hit	J	5191	2	16348503	1	5334	1	0	next
disjunction	positive	30	S_green	hit	J	9725	2	16379172	1	9834	1	0	next
disjunction	negative	1	Null	hit	F	5438	2	16414341	1	5500	1	0	next
disjunction	positive	1	X_blue	hit	J	3884	2	16445176	1	4000	1	0	next
disjunction	positive	15	S_green	hit	J	6225	2	16474512	1	6334	1	0	next
disjunction	negative	30	Null	hit	F	10721	2	16506180	1	10834	1	0	next
disjunction	negative	5	Null	incorrect	J	7193	2	16542349	1	7334	1	0	next
disjunction	positive	30	S_green	hit	J	7324	2	16575018	1	7501	1	0	next
disjunction	positive	15	S_brown	hit	J	4727	2	16607853	1	4834	1	0	next
disjunction	negative	15	Null	hit	F	7038	2	16638022	1	7167	1	0	next
disjunction	positive	30	S_brown	hit	J	7017	2	16670524	1	7167	1	0	next
disjunction	positive	15	S_green	incorrect	F	8919	2	16703026	1	9001	1	0	next
disjunction	positive	5	T_blue	hit	J	5306	2	16737362	1	5500	1	0	next
disjunction	positive	15	X_blue	hit	J	5187	2	16768197	1	5334	1	0	next
disjunction	negative	15	Null	hit	F	7642	2	16798866	1	7834	1	0	next
disjunction	negative	5	Null	hit	F	6792	2	16832035	1	6834	1	0	next
disjunction	positive	30	S_brown	hit	J	13345	2	16864203	1	13501	1	0	next
disjunction	negative	30	Null	hit	F	6670	2	16903039	1	6834	1	0	next
disjunction	negative	1	Null	hit	F	9544	2	16935208	1	9667	1	0	next
disjunction	negative	1	Null	hit	F	4459	2	16970210	1	4500	1	0	next
disjunction	positive	5	S_green	hit	J	7424	2	17000045	1	7500	1	0	next
disjunction	positive	30	S_brown	hit	J	4831	2	17032881	1	5000	1	0	next
disjunction	positive	30	T_blue	hit	J	4897	2	17063216	1	5000	1	0	next
disjunction	positive	15	X_blue	hit	J	5921	2	17093551	1	6000	1	0	next
disjunction	negative	15	Null	hit	F	20668	2	17124887	1	20835	1	0	next
disjunction	positive	1	X_blue	hit	J	28741	2	17171056	1	28835	1	0	next
disjunction	positive	15	X_blue	hit	J	5296	2	17225226	1	5334	1	0	next
disjunction	negative	15	Null	hit	F	9342	2	17255895	1	9501	1	0	next
disjunction	positive	1	T_blue	hit	J	3951	2	17290731	1	4000	1	0	next
disjunction	positive	30	X_blue	hit	J	4217	2	17320066	1	4334	1	0	next
disjunction	positive	15	S_brown	incorrect	F	5907	2	17349734	1	6000	1	0	next
disjunction	positive	5	S_brown	hit	J	8813	2	17381070	1	9001	1	0	next
disjunction	negative	5	Null	hit	F	11596	2	17415405	1	11667	1	0	next
disjunction	positive	30	T_blue	hit	J	5154	2	17452408	1	5334	1	0	next
disjunction	positive	1	X_blue	hit	J	4731	2	17483076	1	4834	1	0	next
disjunction	negative	30	Null	hit	F	7680	2	17513245	1	7834	1	0	next
disjunction	negative	1	Null	hit	F	11636	2	17546414	1	11667	1	0	next
disjunction	positive	1	X_blue	hit	J	5992	2	17583416	1	6167	1	0	next
disjunction	negative	1	Null	hit	F	6968	2	17614918	1	7000	1	0	next
disjunction	negative	30	Null	hit	F	10637	2	17647254	1	10834	1	0	next
disjunction	positive	15	T_blue	hit	J	5025	2	17683423	1	5167	1	0	next
disjunction	negative	15	Null	hit	F	7807	2	17713924	1	8001	1	0	next
disjunction	negative	30	Null	hit	F	12389	2	17747260	1	12501	1	0	next
disjunction	negative	15	Null	hit	F	8318	2	17785096	1	8501	1	0	next
disjunction	positive	1	X_blue	hit	J	7123	2	17818931	1	7167	1	0	next
disjunction	positive	5	X_blue	hit	J	4378	2	17851433	1	4500	1	0	next
disjunction	positive	15	X_blue	hit	J	5110	2	17881269	1	5167	1	0	next
disjunction	positive	1	T_blue	hit	J	4043	2	17911770	1	4167	1	0	next
disjunction	positive	15	T_blue	hit	J	4144	2	17941272	1	4334	1	0	next
disjunction	positive	1	T_blue	hit	J	3759	2	17970941	1	3834	1	0	next
disjunction	positive	15	S_brown	incorrect	F	6745	2	18000110	1	6834	1	0	next
disjunction	negative	1	Null	incorrect	J	9462	2	18032278	1	9501	1	0	next
disjunction	negative	5	Null	hit	F	16066	2	18067114	1	16168	1	0	next
disjunction	negative	30	Null	hit	F	24645	2	18108616	1	24835	1	0	next
disjunction	positive	5	X_blue	hit	J	5674	2	18158786	1	5834	1	0	next
disjunction	negative	1	Null	hit	F	5546	2	18189955	1	5667	1	0	next
disjunction	negative	1	Null	hit	F	5424	2	18220957	1	5500	1	0	next
disjunction	positive	15	S_brown	incorrect	F	15715	2	18251792	1	15834	1	0	next
disjunction	negative	5	Null	hit	F	6221	2	18292962	1	6334	1	0	next
disjunction	positive	30	S_brown	hit	J	16159	2	18324630	1	16334	1	0	next
disjunction	positive	5	S_brown	hit	J	6646	2	18366300	1	6834	1	0	next
disjunction	negative	1	Null	hit	F	7758	2	18398468	1	7834	1	0	next
disjunction	negative	5	Null	hit	F	9633	2	18431637	1	9667	1	0	next
disjunction	positive	5	T_blue	hit	J	5668	2	18466639	1	5834	1	0	next
disjunction	negative	5	Null	hit	F	6660	2	18497808	1	6834	1	0	next
disjunction	positive	1	T_blue	hit	J	5055	2	18529977	1	5167	1	0	next
disjunction	negative	30	Null	hit	F	11833	2	18560479	1	12001	1	0	next
disjunction	negative	5	Null	hit	F	4897	2	18597815	1	5000	1	0	next
disjunction	negative	30	Null	hit	F	11202	2	18628150	1	11334	1	0	next
disjunction	negative	5	Null	hit	F	4459	2	18664819	1	4500	1	0	next
disjunction	positive	1	T_blue	hit	J	5983	2	18694654	1	6167	1	0	next
disjunction	negative	15	Null	hit	F	5202	2	18726156	1	5334	1	0	next
disjunction	positive	1	T_blue	hit	J	5252	2	18756825	1	5334	1	0	next
disjunction	positive	1	S_brown	incorrect	F	5622	2	18787493	1	5667	1	0	next
disjunction	positive	1	S_brown	hit	J	4701	2	18818495	1	4834	1	0	next
disjunction	positive	5	S_brown	hit	J	6693	2	18848664	1	6834	1	0	next
disjunction	positive	1	S_brown	hit	J	3968	2	18880833	1	4167	1	0	next
disjunction	negative	5	Null	hit	F	5827	2	18910335	1	6000	1	0	next
disjunction	negative	5	Null	incorrect	J	2171	2	18941670	1	2333	1	0	next
disjunction	negative	5	Null	hit	F	3627	2	18969338	1	3667	1	0	next
disjunction	positive	1	S_green	hit	J	7983	2	19020342	1	8167	1	0	next
disjunction	negative	15	Null	hit	F	11122	2	19053844	1	11167	1	0	next
disjunction	negative	30	Null	hit	F	5657	2	19090346	1	5834	1	0	next
disjunction	negative	30	Null	hit	F	12089	2	19121515	1	12167	1	0	next
disjunction	positive	30	T_blue	hit	J	4830	2	19159017	1	5000	1	0	next
disjunction	negative	1	Null	hit	F	4733	2	19189353	1	4834	1	0	next
disjunction	negative	1	Null	incorrect	J	1609	2	19219521	1	1667	1	0	next
disjunction	negative	15	Null	hit	F	2763	2	19246523	1	2833	1	0	next
disjunction	negative	30	Null	hit	F	7556	2	19274691	1	7667	1	0	next
disjunction	positive	1	S_brown	hit	J	3195	2	19307693	1	3334	1	0	next
disjunction	positive	30	S_brown	hit	J	7169	2	19336362	1	7334	1	0	next
disjunction	positive	15	X_blue	hit	J	900	2	19369031	1	1000	1	0	next
disjunction	positive	30	T_blue	hit	J	5290	2	19395366	1	5334	1	0	next
disjunction	negative	1	Null	hit	F	6778	2	19426034	1	6834	1	0	next
disjunction	negative	30	Null	hit	F	7569	2	19458203	1	7667	1	0	next
disjunction	negative	30	Null	hit	F	6412	2	19491205	1	6500	1	0	next
disjunction	positive	5	S_brown	hit	J	3856	2	19523041	1	4000	1	0	next
disjunction	positive	30	S_brown	hit	J	4761	2	19552376	1	4834	1	0	next
disjunction	negative	1	Null	hit	F	9476	2	19582544	1	9667	1	0	next
disjunction	negative	1	Null	hit	F	4234	2	19617547	1	4334	1	0	next
disjunction	positive	5	S_brown	hit	J	4487	2	19647215	1	4667	1	0	next
disjunction	positive	15	T_blue	hit	J	5521	2	19677217	1	5667	1	0	next
disjunction	negative	1	Null	incorrect	J	2040	2	19708219	1	2167	1	0	next
disjunction	positive	1	X_blue	hit	J	5582	2	19735721	1	5667	1	0	next
disjunction	positive	1	S_brown	hit	J	5779	2	19766723	1	5834	1	0	next
disjunction	positive	15	S_brown	incorrect	F	2293	2	19797892	1	2333	1	0	next
disjunction	positive	5	S_green	hit	J	2465	2	19825560	1	2500	1	0	next
disjunction	positive	1	X_blue	hit	J	6151	2	19853395	1	6334	1	0	next
disjunction	positive	30	S_green	hit	J	7760	2	19885064	1	7834	1	0	next
disjunction	negative	5	Null	hit	F	5317	2	19918233	1	5500	1	0	next
disjunction	positive	15	S_green	incorrect	F	15758	2	19949068	1	15834	1	0	next
disjunction	positive	30	S_green	incorrect	F	9150	2	19990237	1	9334	1	0	next
disjunction	negative	5	Null	hit	F	9521	2	20024906	1	9667	1	0	next
disjunction	negative	15	Null	hit	F	10042	2	20059908	1	10167	1	0	next
disjunction	positive	30	S_green	incorrect	F	15018	2	20095411	1	15168	1	0	next
disjunction	negative	1	Null	hit	F	8759	2	20135913	1	8834	1	0	next
disjunction	negative	1	Null	hit	F	5790	2	20170082	1	5834	1	0	next
disjunction	negative	30	Null	hit	F	15424	2	20201251	1	15501	1	0	next
disjunction	negative	1	Null	hit	F	6587	2	20242087	1	6667	1	0	next
disjunction	negative	1	Null	hit	F	6268	2	20274089	1	6334	1	0	next
disjunction	negative	15	Null	hit	F	14443	2	20305757	1	14501	1	0	next
disjunction	negative	5	Null	hit	F	6764	2	20345593	1	6834	1	0	next
disjunction	negative	5	Null	hit	F	6598	2	20377762	1	6667	1	0	next
disjunction	negative	30	Null	hit	F	15715	2	20409764	1	15834	1	0	next
disjunction	negative	5	Null	hit	F	5265	2	20450933	1	5334	1	0	next
disjunction	negative	30	Null	hit	F	14279	2	20481602	1	14334	1	0	next
disjunction	positive	1	T_blue	hit	J	5811	2	20521271	1	6000	1	0	next
disjunction	negative	15	Null	hit	F	6157	2	20552607	1	6334	1	0	next
disjunction	negative	15	Null	hit	F	6008	2	20584275	1	6167	1	0	next
disjunction	negative	5	Null	hit	F	4588	2	20615777	1	4667	1	0	next
disjunction	positive	15	S_green	incorrect	F	5627	2	20645779	1	5667	1	0	next
disjunction	negative	5	Null	incorrect	J	4702	2	20676781	1	4834	1	0	next
disjunction	negative	1	Null	incorrect	J	2374	2	20706950	1	2500	1	0	next
disjunction	negative	1	Null	hit	F	7179	2	20734785	1	7334	1	0	next
disjunction	positive	5	T_blue	hit	J	6034	2	20767454	1	6167	1	0	next
disjunction	negative	15	Null	hit	F	5570	2	20798956	1	5667	1	0	next
disjunction	positive	5	S_green	hit	J	9613	2	20829958	1	9667	1	0	next
disjunction	negative	30	Null	hit	F	7412	2	20864960	1	7500	1	0	next
disjunction	negative	15	Null	hit	F	5936	2	20897795	1	6000	1	0	next
disjunction	negative	15	Null	hit	F	7404	2	20929131	1	7500	1	0	next
disjunction	positive	5	S_brown	hit	J	5285	2	20961966	1	5334	1	0	next
disjunction	negative	15	Null	hit	F	10144	2	20992635	1	10334	1	0	next
disjunction	negative	15	Null	incorrect	J	7909	2	21028304	1	8001	1	0	next
disjunction	negative	1	Null	hit	F	6899	2	21061639	1	7000	1	0	next
disjunction	positive	30	T_blue	hit	J	4960	2	21093975	1	5000	1	0	next
disjunction	negative	30	Null	hit	F	7747	2	21124310	1	7834	1	0	next
disjunction	negative	15	Null	hit	F	4658	2	21157479	1	4834	1	0	next
disjunction	positive	1	X_blue	hit	J	4409	2	21187647	1	4500	1	0	next
disjunction	negative	5	Null	hit	F	5137	2	21217483	1	5334	1	0	next
disjunction	positive	30	T_blue	incorrect	F	5507	2	21248151	1	5667	1	0	next
disjunction	negative	1	Null	hit	F	6347	2	21279153	1	6500	1	0	next
disjunction	negative	30	Null	hit	F	9075	2	21310989	1	9167	1	0	next
disjunction	negative	1	Null	hit	F	4490	2	21345491	1	4667	1	0	next
disjunction	positive	30	S_green	incorrect	F	7772	2	21375493	1	7834	1	0	next
disjunction	negative	15	Null	hit	F	11084	2	21408662	1	11167	1	0	next
disjunction	positive	5	T_blue	hit	J	4499	2	21445164	1	4667	1	0	next
disjunction	negative	5	Null	hit	F	5379	2	21475166	1	5500	1	0	next
disjunction	positive	15	T_blue	hit	J	11828	2	21506001	1	12001	1	0	next
disjunction	positive	15	S_green	incorrect	F	17371	2	21543337	1	17501	1	0	next
disjunction	negative	30	Null	hit	F	14054	2	21586173	1	14168	1	0	next
disjunction	positive	5	S_green	incorrect	F	13114	2	21625676	1	13168	1	0	next
disjunction	positive	15	S_green	incorrect	F	6450	2	21664178	1	6500	1	0	next
disjunction	negative	1	Null	hit	F	8062	2	21696013	1	8167	1	0	next
disjunction	negative	30	Null	hit	F	24315	2	21729516	1	24502	1	0	next
disjunction	positive	5	S_green	incorrect	F	4719	2	21779352	1	4834	1	0	next
disjunction	positive	1	S_brown	hit	J	5275	2	21809521	1	5334	1	0	next
disjunction	positive	30	X_blue	hit	J	5329	2	21840189	1	5500	1	0	next
disjunction	negative	5	Null	hit	F	10329	2	21871025	1	10501	1	0	next
disjunction	positive	15	S_green	hit	J	35459	2	21906860	1	35502	1	0	next
disjunction	positive	5	T_blue	hit	J	5343	2	21967697	1	5500	1	0	next
disjunction	negative	15	Null	hit	F	15784	2	21998533	1	15834	1	0	next
disjunction	positive	5	S_brown	hit	J	5336	2	22039702	1	5500	1	0	next
disjunction	negative	5	Null	hit	F	6983	2	22070537	1	7167	1	0	next
disjunction	negative	5	Null	hit	F	5682	2	22103040	1	5834	1	0	next
disjunction	positive	1	T_blue	hit	J	4595	2	22134208	1	4667	1	0	next
disjunction	positive	15	S_green	hit	J	5955	2	22164210	1	6000	1	0	next
disjunction	negative	30	Null	hit	F	19899	2	22195545	1	20001	1	0	next
disjunction	negative	15	Null	hit	F	16326	2	22240882	1	16501	1	0	next
disjunction	positive	5	X_blue	hit	J	6328	2	22282718	1	6500	1	0	next
disjunction	negative	30	Null	hit	F	14973	2	22314553	1	15001	1	0	next
disjunction	positive	1	X_blue	hit	J	4400	2	22354889	1	4500	1	0	next
disjunction	positive	30	S_green	incorrect	F	13444	2	22384724	1	13501	1	0	next
disjunction	positive	15	X_blue	hit	J	5009	2	22423560	1	5167	1	0	next
disjunction	positive	30	T_blue	hit	J	4426	2	22454062	1	4500	1	0	next
disjunction	negative	15	Null	hit	F	7071	2	22483897	1	7167	1	0	next
disjunction	negative	5	Null	hit	F	9136	2	22516399	1	9334	1	0	next
disjunction	positive	1	T_blue	hit	J	4226	2	22551068	1	4334	1	0	next
disjunction	positive	15	X_blue	hit	J	5600	2	22580737	1	5667	1	0	next
disjunction	negative	30	Null	hit	F	12195	2	22611739	1	12334	1	0	next
disjunction	negative	5	Null	hit	F	7485	2	22649408	1	7667	1	0	next
disjunction	positive	5	S_brown	hit	J	12564	2	22682410	1	12667	1	0	next
disjunction	positive	1	S_brown	hit	J	5446	2	22720412	1	5500	1	0	next
disjunction	negative	5	Null	hit	F	10608	2	22751248	1	10667	1	0	next
disjunction	positive	5	T_blue	hit	J	4687	2	22787250	1	4834	1	0	next
disjunction	negative	5	Null	hit	F	10359	2	22817419	1	10501	1	0	next
disjunction	positive	1	S_brown	hit	J	4927	2	22853254	1	5000	1	0	next
disjunction	positive	5	T_blue	hit	J	5153	2	22883590	1	5334	1	0	next
disjunction	positive	5	X_blue	hit	J	5362	2	22914258	1	5500	1	0	next
disjunction	positive	30	S_brown	incorrect	F	16772	2	22945094	1	16834	1	0	next
disjunction	positive	30	T_blue	hit	J	5000	2	22987263	1	5167	1	0	next
disjunction	positive	15	S_brown	incorrect	F	14658	2	23017765	1	14834	1	0	next
disjunction	positive	30	X_blue	hit	J	4729	2	23057934	1	4834	1	0	next
disjunction	positive	1	S_brown	hit	J	4486	2	23088103	1	4667	1	0	next
disjunction	positive	15	X_blue	hit	J	4403	2	23118105	1	4500	1	0	next
disjunction	positive	1	X_blue	hit	J	3526	2	23147940	1	3667	1	0	next
disjunction	positive	1	X_blue	hit	J	3007	2	23176942	1	3167	1	0	next
disjunction	positive	15	X_blue	hit	J	4585	2	23205444	1	4667	1	0	next
disjunction	positive	15	X_blue	hit	J	3703	2	23235446	1	3834	1	0	next
conjunction	positive	30	T_green	hit	J	18600	2	23290949	1	18668	1	0	next
conjunction	positive	15	T_green	incorrect	F	5960	2	23334952	1	6000	1	0	next
conjunction	negative	1	Null	hit	F	8069	2	23366287	1	8167	1	0	next
conjunction	negative	5	Null	hit	F	7683	2	23399789	1	7834	1	0	next
conjunction	negative	30	Null	hit	F	19960	2	23432958	1	20001	1	0	next
conjunction	negative	15	Null	hit	F	13342	2	23478294	1	13501	1	0	next
conjunction	negative	30	Null	hit	F	23949	2	23517130	1	24002	1	0	next
conjunction	positive	5	T_green	hit	J	8370	2	23566467	1	8501	1	0	next
conjunction	negative	30	Null	hit	F	22375	2	23600302	1	22501	1	0	next
conjunction	positive	5	T_green	hit	J	7341	2	23648139	1	7501	1	0	next
conjunction	negative	15	Null	hit	F	14186	2	23680974	1	14334	1	0	next
conjunction	positive	1	T_green	hit	J	5077	2	23720643	1	5167	1	0	next
conjunction	positive	5	T_green	hit	J	4980	2	23751145	1	5167	1	0	next
conjunction	negative	1	Null	hit	F	6320	2	23781647	1	6500	1	0	next
conjunction	positive	5	T_green	hit	J	5521	2	23813483	1	5667	1	0	next
conjunction	negative	1	Null	hit	F	5403	2	23844485	1	5500	1	0	next
conjunction	positive	5	T_green	incorrect	F	7685	2	23875320	1	7834	1	0	next
conjunction	positive	15	T_green	hit	J	4601	2	23908489	1	4667	1	0	next
conjunction	positive	30	T_green	hit	J	8356	2	23938491	1	8501	1	0	next
conjunction	negative	15	Null	hit	F	15965	2	23972326	1	16001	1	0	next
conjunction	positive	30	T_green	hit	J	12550	2	24013662	1	12667	1	0	next
conjunction	positive	1	T_green	hit	J	3825	2	24051665	1	4000	1	0	next
conjunction	positive	5	T_green	hit	J	3934	2	24081000	1	4000	1	0	next
conjunction	positive	5	T_green	hit	J	5157	2	24110335	1	5334	1	0	next
conjunction	positive	30	T_green	hit	J	6492	2	24141004	1	6667	1	0	next
conjunction	negative	30	Null	hit	F	21212	2	24173006	1	21335	1	0	next
conjunction	negative	15	Null	hit	F	16300	2	24219675	1	16334	1	0	next
conjunction	positive	30	T_green	hit	J	7115	2	24261345	1	7167	1	0	next
conjunction	positive	30	T_green	hit	J	7728	2	24293847	1	7834	1	0	next
conjunction	negative	15	Null	hit	F	11360	2	24327016	1	11501	1	0	next
conjunction	positive	15	T_green	hit	J	5090	2	24363851	1	5167	1	0	next
conjunction	positive	15	T_green	hit	J	10268	2	24394353	1	10334	1	0	next
conjunction	negative	1	Null	hit	F	6277	2	24430022	1	6334	1	0	next
conjunction	negative	1	Null	hit	F	5169	2	24461691	1	5334	1	0	next
conjunction	positive	1	T_green	hit	J	4588	2	24492360	1	4667	1	0	next
conjunction	negative	1	Null	hit	F	5784	2	24522361	1	5834	1	0	next
conjunction	positive	1	T_green	hit	J	9012	2	24553530	1	9167	1	0	next
conjunction	positive	15	T_green	hit	J	4914	2	24588032	1	5000	1	0	next
conjunction	negative	5	Null	hit	F	6257	2	24618368	1	6334	1	0	next
conjunction	negative	5	Null	hit	F	5950	2	24650036	1	6000	1	0	next
conjunction	negative	15	Null	hit	F	15098	2	24681372	1	15168	1	0	next
conjunction	negative	5	Null	hit	F	5791	2	24721874	1	5834	1	0	next
conjunction	negative	5	Null	hit	F	5023	2	24753043	1	5167	1	0	next
conjunction	positive	15	T_green	hit	J	10523	2	24783545	1	10667	1	0	next
conjunction	positive	15	T_green	hit	J	7968	2	24819547	1	8000	1	0	next
conjunction	positive	5	T_green	hit	J	4712	2	24852883	1	4834	1	0	next
conjunction	negative	1	Null	incorrect	J	4306	2	24883051	1	4500	1	0	next
conjunction	negative	15	Null	hit	F	11424	2	24912887	1	11501	1	0	next
conjunction	negative	15	Null	hit	F	12030	2	24949722	1	12167	1	0	next
conjunction	positive	30	T_green	hit	J	15009	2	24987225	1	15168	1	0	next
conjunction	positive	30	T_green	hit	J	20588	2	25027727	1	20668	1	0	next
conjunction	positive	15	T_green	hit	J	2268	2	25073730	1	2333	1	0	next
conjunction	negative	15	Null	hit	F	2122	2	25101399	1	2167	1	0	next
conjunction	positive	30	T_green	incorrect	F	2620	2	25128900	1	2667	1	0	next
conjunction	negative	15	Null	hit	F	25336	2	25156902	1	25502	1	0	next
conjunction	positive	5	T_green	hit	J	7464	2	25207739	1	7500	1	0	next
conjunction	positive	5	T_green	hit	J	5989	2	25240574	1	6167	1	0	next
conjunction	positive	1	T_green	hit	J	4888	2	25272076	1	5000	1	0	next
conjunction	positive	15	T_green	hit	J	7993	2	25302412	1	8167	1	0	next
conjunction	positive	5	T_green	hit	J	6491	2	25335914	1	6667	1	0	next
conjunction	negative	5	Null	hit	F	13849	2	25367916	1	14001	1	0	next
conjunction	positive	1	T_green	hit	J	4597	2	25407252	1	4667	1	0	next
conjunction	negative	1	Null	hit	F	5156	2	25437254	1	5334	1	0	next
conjunction	positive	5	T_green	hit	J	8087	2	25467922	1	8167	1	0	next
conjunction	positive	5	T_green	hit	J	5143	2	25501424	1	5334	1	0	next
conjunction	positive	1	T_green	hit	J	4714	2	25532093	1	4834	1	0	next
conjunction	positive	30	T_green	hit	J	7989	2	25562262	1	8167	1	0	next
conjunction	positive	1	T_green	incorrect	F	4250	2	25595764	1	4334	1	0	next
conjunction	negative	15	Null	hit	F	13619	2	25625432	1	13667	1	0	next
conjunction	negative	5	Null	hit	F	5815	2	25664435	1	6000	1	0	next
conjunction	negative	30	Null	hit	F	14964	2	25695770	1	15001	1	0	next
conjunction	positive	15	T_green	hit	J	7270	2	25736106	1	7334	1	0	next
conjunction	negative	15	Null	hit	F	13002	2	25768775	1	13168	1	0	next
conjunction	positive	30	T_green	hit	J	6018	2	25807277	1	6167	1	0	next
conjunction	negative	30	Null	hit	F	18837	2	25838779	1	19001	1	0	next
conjunction	positive	1	T_green	hit	J	4260	2	25883115	1	4334	1	0	next
conjunction	positive	30	T_green	hit	J	6596	2	25912784	1	6667	1	0	next
conjunction	positive	5	T_green	hit	J	6595	2	25944786	1	6667	1	0	next
conjunction	negative	30	Null	hit	F	12671	2	25976788	1	12834	1	0	next
conjunction	negative	15	Null	hit	F	7141	2	26014957	1	7167	1	0	next
conjunction	positive	1	T_green	hit	J	5044	2	26047459	1	5167	1	0	next
conjunction	negative	1	Null	hit	F	6381	2	26077961	1	6500	1	0	next
conjunction	positive	1	T_green	hit	J	4308	2	26109797	1	4500	1	0	next
conjunction	negative	30	Null	hit	F	13990	2	26139632	1	14168	1	0	next
conjunction	positive	1	T_green	hit	J	10809	2	26179134	1	11001	1	0	next
conjunction	negative	15	Null	hit	F	12075	2	26215470	1	12167	1	0	next
conjunction	positive	15	T_green	incorrect	F	9775	2	26252973	1	9834	1	0	next
conjunction	positive	1	T_green	hit	J	5968	2	26288141	1	6000	1	0	next
conjunction	negative	30	Null	hit	F	19113	2	26319477	1	19168	1	0	next
conjunction	negative	5	Null	incorrect	J	4849	2	26363980	1	5000	1	0	next
conjunction	positive	15	T_green	hit	J	5557	2	26394315	1	5667	1	0	next
conjunction	positive	15	T_green	incorrect	F	11032	2	26425317	1	11167	1	0	next
conjunction	negative	15	Null	hit	F	12775	2	26461819	1	12834	1	0	next
conjunction	positive	5	T_green	hit	J	5004	2	26499988	1	5167	1	0	next
conjunction	negative	5	Null	hit	F	6983	2	26530490	1	7167	1	0	next
conjunction	negative	1	Null	hit	F	5842	2	26562992	1	6000	1	0	next
conjunction	positive	30	T_green	hit	J	14345	2	26594328	1	14501	1	0	next
conjunction	negative	15	Null	incorrect	J	5238	2	26634164	1	5334	1	0	next
conjunction	negative	5	Null	hit	F	6567	2	26664832	1	6667	1	0	next
conjunction	negative	30	Null	hit	F	14724	2	26696834	1	14834	1	0	next
conjunction	positive	15	T_green	hit	J	24153	2	26737004	1	24335	1	0	next
conjunction	negative	30	Null	hit	F	20728	2	26786673	1	20835	1	0	next
conjunction	negative	30	Null	hit	F	43999	2	26832843	1	44170	1	0	next
conjunction	negative	30	Null	hit	F	27138	2	26902348	1	27335	1	0	next
conjunction	positive	30	T_green	hit	J	10948	2	26955018	1	11001	1	0	next
conjunction	positive	15	T_green	incorrect	F	8691	2	26991353	1	8834	1	0	next
conjunction	positive	15	T_green	hit	J	6523	2	27025522	1	6667	1	0	next
conjunction	negative	30	Null	hit	F	13722	2	27057524	1	13834	1	0	next
conjunction	positive	1	T_green	hit	J	4477	2	27096693	1	4667	1	0	next
conjunction	negative	5	Null	hit	F	6152	2	27126695	1	6334	1	0	next
conjunction	negative	1	Null	incorrect	J	4248	2	27158364	1	4334	1	0	next
conjunction	positive	1	T_green	hit	J	5139	2	27188033	1	5334	1	0	next
conjunction	negative	30	Null	hit	F	24712	2	27218701	1	24835	1	0	next
conjunction	negative	5	Null	incorrect	J	7825	2	27268871	1	8001	1	0	next
conjunction	positive	1	T_green	hit	J	6646	2	27302207	1	6834	1	0	next
conjunction	positive	5	T_green	hit	J	6157	2	27334375	1	6334	1	0	next
conjunction	negative	1	Null	hit	F	8253	2	27366044	1	8334	1	0	next
conjunction	negative	1	Null	hit	F	6422	2	27399713	1	6500	1	0	next
conjunction	negative	1	Null	hit	F	5312	2	27431548	1	5500	1	0	next
conjunction	positive	30	T_green	hit	J	9833	2	27462384	1	10001	1	0	next
conjunction	negative	5	Null	hit	F	7461	2	27497719	1	7500	1	0	next
conjunction	negative	1	Null	hit	F	4863	2	27530555	1	5000	1	0	next
conjunction	positive	30	T_green	hit	J	15170	2	27560890	1	15334	1	0	next
conjunction	negative	1	Null	hit	F	5543	2	27601559	1	5667	1	0	next
conjunction	negative	5	Null	hit	F	6541	2	27632561	1	6667	1	0	next
conjunction	negative	5	Null	hit	F	5473	425	27664563	1	6834	1	0	next
conjunction	negative	5	Null	hit	F	5414	2	27696732	1	5500	1	0	next
conjunction	negative	30	Null	hit	F	19060	2	27727567	1	19168	1	0	next
