Target_Type	Trial_Type	Display_Size	Target	Response	Key_press	RT	Uncertainty	Time	Uncertainty	Duration	Uncertainty	ReqTime	ReqDur
disjunction	negative	15	Null	hit	F	29844	2	135874	1	30002	1	0	next
disjunction	positive	5	X_blue	hit	J	13865	2	191211	1	14001	1	0	next
disjunction	positive	1	T_blue	hit	J	6371	2	230547	1	6500	1	0	next
disjunction	negative	15	Null	hit	F	13577	2	262382	1	13668	1	0	next
disjunction	positive	5	S_green	hit	J	10573	2	301385	1	10667	1	0	next
disjunction	negative	1	Null	hit	F	8174	2	337387	1	8334	1	0	next
disjunction	positive	1	X_blue	hit	J	7624	2	371056	1	7834	1	0	next
disjunction	negative	1	Null	hit	F	14617	2	404225	1	14668	1	0	next
disjunction	negative	5	Null	hit	F	8535	2	444228	1	8667	1	0	next
disjunction	negative	1	Null	incorrect	J	8454	2	478230	1	8500	1	0	next
disjunction	positive	30	S_brown	hit	J	13339	2	512065	1	13501	1	0	next
disjunction	negative	1	Null	hit	F	6184	2	550901	1	6334	1	0	next
disjunction	positive	15	S_brown	hit	J	12277	2	582570	1	12334	1	0	next
disjunction	negative	1	Null	hit	F	8848	2	620239	1	9001	1	0	next
disjunction	positive	5	X_blue	hit	J	7954	2	654575	1	8001	1	0	next
disjunction	negative	5	Null	incorrect	J	12538	2	687910	1	12667	1	0	next
disjunction	negative	15	Null	hit	F	10697	2	725912	1	10834	1	0	next
disjunction	negative	15	Null	hit	F	19970	2	762082	1	20168	1	0	next
disjunction	positive	1	T_blue	hit	J	6627	2	807584	1	6667	1	0	next
disjunction	negative	1	Null	hit	F	8227	2	839587	1	8334	1	0	next
disjunction	negative	1	Null	hit	F	6880	2	873255	1	7000	1	0	next
disjunction	negative	15	Null	hit	F	11668	2	905591	1	11834	1	0	next
disjunction	positive	5	S_brown	hit	J	8256	2	942760	1	8334	1	0	next
disjunction	negative	15	Null	hit	F	14748	2	976429	1	14834	1	0	next
disjunction	negative	30	Null	hit	F	18579	2	1016598	1	18668	1	0	next
disjunction	positive	1	S_green	hit	J	7058	2	1060601	1	7167	1	0	next
disjunction	positive	1	X_blue	hit	J	6558	2	1093103	1	6667	1	0	next
disjunction	positive	30	S_green	hit	J	18555	2	1125105	1	18668	1	0	next
disjunction	positive	30	T_blue	hit	J	7513	2	1169108	1	7667	1	0	next
disjunction	positive	1	T_blue	hit	J	4752	2	1202110	1	4834	1	0	next
disjunction	negative	1	Null	hit	F	5625	2	1232279	1	5667	1	0	next
disjunction	negative	15	Null	hit	F	9663	2	1263281	1	9834	1	0	next
disjunction	positive	5	X_blue	hit	J	5375	2	1298450	1	5500	1	0	next
disjunction	positive	5	X_blue	hit	J	6382	2	1329285	1	6500	1	0	next
disjunction	positive	15	S_green	hit	J	6227	2	1361120	1	6334	1	0	next
disjunction	negative	15	Null	hit	F	9119	2	1392789	1	9167	1	0	next
disjunction	negative	30	Null	hit	F	13817	2	1427291	1	14001	1	0	next
disjunction	positive	15	T_blue	hit	J	6640	2	1466627	1	6667	1	0	next
disjunction	positive	30	X_blue	hit	J	6002	2	1498629	1	6167	1	0	next
disjunction	negative	5	Null	hit	F	7457	2	1530131	1	7500	1	0	next
disjunction	positive	1	T_blue	hit	J	6626	2	1562967	1	6834	1	0	next
disjunction	negative	1	Null	incorrect	J	4856	2	1595136	1	5000	1	0	next
disjunction	negative	30	Null	hit	F	13242	2	1625471	1	13334	1	0	next
disjunction	negative	5	Null	hit	F	7373	2	1664140	1	7500	1	0	next
disjunction	positive	30	S_green	hit	J	7661	2	1696975	1	7834	1	0	next
disjunction	positive	1	T_blue	hit	J	5212	2	1730144	1	5334	1	0	next
disjunction	positive	1	T_blue	hit	J	5582	2	1760813	1	5667	1	0	next
disjunction	negative	30	Null	hit	F	12025	2	1791815	1	12167	1	0	next
disjunction	negative	15	Null	hit	F	17402	2	1829317	1	17501	1	0	next
disjunction	positive	1	S_brown	hit	J	5287	2	1872154	1	5334	1	0	next
disjunction	positive	5	S_green	hit	J	8060	2	1902822	1	8167	1	0	next
disjunction	positive	30	X_blue	hit	J	7836	2	1936324	1	8001	1	0	next
disjunction	negative	1	Null	hit	F	7944	2	1969660	1	8001	1	0	next
disjunction	negative	30	Null	hit	F	11249	2	2002995	1	11334	1	0	next
disjunction	positive	30	S_green	hit	J	7218	2	2039664	1	7334	1	0	next
disjunction	negative	1	Null	hit	F	7830	2	2072333	1	8000	1	0	next
disjunction	negative	1	Null	hit	F	8097	2	2105669	1	8167	1	0	next
disjunction	negative	15	Null	hit	F	10596	2	2139171	1	10667	1	0	next
disjunction	positive	1	T_blue	hit	J	6275	2	2175173	1	6334	1	0	next
disjunction	positive	15	T_blue	hit	J	8207	2	2206842	1	8334	1	0	next
disjunction	positive	5	S_brown	hit	J	8938	2	2240511	1	9001	1	0	next
disjunction	positive	15	T_blue	hit	J	6284	2	2274846	1	6334	1	0	next
disjunction	positive	30	T_blue	hit	J	6936	2	2306515	1	7000	1	0	next
disjunction	negative	5	Null	hit	F	10122	2	2338850	1	10167	1	0	next
disjunction	negative	5	Null	hit	F	12218	2	2374353	1	12334	1	0	next
disjunction	negative	15	Null	hit	F	12470	2	2412022	1	12667	1	0	next
disjunction	positive	1	S_brown	hit	J	6633	2	2450024	1	6667	1	0	next
disjunction	negative	1	Null	hit	F	6791	2	2482026	1	6834	1	0	next
disjunction	negative	1	Null	hit	F	6462	2	2514195	1	6667	1	0	next
disjunction	negative	1	Null	hit	F	5822	2	2546197	1	6000	1	0	next
disjunction	negative	5	Null	hit	F	13365	2	2577533	1	13501	1	0	next
disjunction	positive	5	X_blue	hit	J	6851	2	2616368	1	7000	1	0	next
disjunction	negative	5	Null	hit	F	7156	2	2648704	1	7334	1	0	next
disjunction	negative	5	Null	hit	F	6488	2	2681373	1	6667	1	0	next
disjunction	positive	5	S_green	hit	J	6167	2	2713375	1	6334	1	0	next
disjunction	negative	1	Null	hit	F	5217	2	2745043	1	5334	1	0	next
disjunction	positive	1	T_blue	hit	J	5270	2	2775712	1	5334	1	0	next
disjunction	positive	15	T_blue	hit	J	6763	2	2806381	1	6834	1	0	next
disjunction	negative	15	Null	hit	F	10279	2	2838550	1	10334	1	0	next
disjunction	negative	5	Null	hit	F	5168	2	2874219	1	5334	1	0	next
disjunction	negative	30	Null	hit	F	10660	2	2904887	1	10834	1	0	next
disjunction	negative	5	Null	hit	F	7452	2	2941056	1	7500	1	0	next
disjunction	negative	15	Null	hit	F	6137	2	2973892	1	6334	1	0	next
disjunction	negative	30	Null	hit	F	8709	2	3005560	1	8834	1	0	next
disjunction	positive	1	X_blue	hit	J	4942	2	3039729	1	5000	1	0	next
disjunction	negative	15	Null	hit	F	6924	2	3070065	1	7000	1	0	next
disjunction	positive	15	S_green	hit	J	11231	2	3102400	1	11334	1	0	next
disjunction	negative	15	Null	hit	F	11843	2	3139069	1	12001	1	0	next
disjunction	negative	5	Null	hit	F	5707	2	3176405	1	5834	1	0	next
disjunction	negative	30	Null	hit	F	11661	2	3207574	1	11834	1	0	next
disjunction	positive	1	T_blue	hit	J	5533	2	3244743	1	5667	1	0	next
disjunction	negative	30	Null	hit	F	13250	2	3275745	1	13334	1	0	next
disjunction	negative	5	Null	hit	F	8664	2	3314414	1	8834	1	0	next
disjunction	positive	5	X_blue	hit	J	5695	2	3348583	1	5834	1	0	next
disjunction	negative	5	Null	hit	F	6685	2	3379751	1	6834	1	0	next
disjunction	negative	5	Null	hit	F	11961	2	3411920	1	12001	1	0	next
disjunction	negative	15	Null	hit	F	7264	2	3449256	1	7334	1	0	next
disjunction	negative	30	Null	hit	F	4035	2	3481925	1	4167	1	0	next
disjunction	negative	5	Null	hit	F	6218	2	3511427	1	6334	1	0	next
disjunction	negative	30	Null	hit	F	6389	2	3543095	1	6500	1	0	next
disjunction	negative	30	Null	hit	F	4952	2	3574931	1	5000	1	0	next
disjunction	negative	30	Null	hit	F	14938	2	3605266	1	15001	1	0	next
disjunction	positive	15	S_green	hit	J	10762	2	3645602	1	10834	1	0	next
disjunction	negative	30	Null	hit	F	13158	2	3681771	1	13334	1	0	next
disjunction	positive	30	T_blue	hit	J	6328	2	3720440	1	6500	1	0	next
disjunction	positive	15	X_blue	hit	J	8254	2	3752275	1	8334	1	0	next
disjunction	positive	30	X_blue	hit	J	6423	2	3785944	1	6500	1	0	next
disjunction	positive	15	S_brown	hit	J	8350	2	3817780	1	8501	1	0	next
disjunction	positive	1	X_blue	hit	J	6677	2	3851615	1	6834	1	0	next
disjunction	negative	30	Null	hit	F	12109	2	3883784	1	12167	1	0	next
disjunction	positive	30	S_green	hit	J	11087	2	3921286	1	11167	1	0	next
disjunction	positive	5	S_green	hit	J	8827	2	3957789	1	9001	1	0	next
disjunction	positive	30	S_green	hit	J	6330	2	3992124	1	6500	1	0	next
disjunction	positive	5	S_green	hit	J	5217	2	4023960	1	5334	1	0	next
disjunction	negative	30	Null	hit	F	13268	2	4054628	1	13334	1	0	next
disjunction	positive	30	S_brown	hit	J	6920	2	4093298	1	7001	1	0	next
disjunction	positive	5	X_blue	hit	J	5146	2	4125633	1	5334	1	0	next
disjunction	positive	15	X_blue	hit	J	5677	2	4156302	1	5834	1	0	next
disjunction	positive	15	S_green	incorrect	F	11469	2	4187470	1	11667	1	0	next
disjunction	positive	15	S_green	hit	J	10789	2	4224473	1	10834	1	0	next
disjunction	positive	5	S_brown	hit	J	9500	2	4260642	1	9667	1	0	next
disjunction	positive	30	S_brown	hit	J	11140	2	4295644	1	11334	1	0	next
disjunction	positive	5	S_brown	hit	J	5350	2	4332313	1	5500	1	0	next
disjunction	positive	15	S_brown	hit	J	10355	2	4363148	1	10501	1	0	next
disjunction	positive	15	S_brown	hit	J	12762	2	4398984	1	12834	1	0	next
disjunction	positive	30	S_brown	hit	J	6272	2	4437153	1	6334	1	0	next
disjunction	positive	15	S_brown	hit	J	5325	2	4468822	1	5500	1	0	next
disjunction	positive	30	S_brown	hit	J	5690	2	4499657	1	5834	1	0	next
conjunction	negative	5	Null	incorrect	J	7785	2	4819011	1	7834	1	0	next
conjunction	positive	15	T_green	incorrect	F	13177	2	4852180	1	13334	1	0	next
conjunction	positive	30	T_green	hit	J	18028	2	4890849	1	18168	1	0	next
conjunction	negative	15	Null	hit	F	19647	2	4934352	1	19835	1	0	next
conjunction	negative	1	Null	incorrect	J	7597	2	4979522	1	7667	1	0	next
conjunction	positive	5	T_green	hit	J	36358	2	5012524	1	36502	1	0	next
conjunction	positive	1	T_green	hit	J	6362	2	5074361	1	6500	1	0	next
conjunction	positive	30	T_green	hit	J	9886	2	5106197	1	10001	1	0	next
conjunction	negative	30	Null	hit	F	22394	2	5141532	1	22501	1	0	next
conjunction	negative	1	Null	hit	F	8958	2	5189369	1	9001	1	0	next
conjunction	positive	1	T_green	incorrect	F	4861	2	5223704	1	5000	1	0	next
conjunction	negative	15	Null	hit	F	11809	2	5254040	1	12001	1	0	next
conjunction	negative	5	Null	incorrect	J	19752	2	5291375	1	19835	1	0	next
conjunction	negative	1	Null	hit	F	8984	2	5336545	1	9167	1	0	next
conjunction	positive	1	T_green	hit	J	6804	2	5371047	1	6834	1	0	next
conjunction	negative	15	Null	hit	F	11756	2	5403216	1	11834	1	0	next
conjunction	positive	15	T_green	hit	J	22749	2	5440385	1	22835	1	0	next
conjunction	negative	5	Null	hit	F	15699	2	5488555	1	15834	1	0	next
conjunction	positive	5	T_green	hit	J	6690	2	5529724	1	6834	1	0	next
conjunction	positive	5	T_green	hit	J	6361	2	5561893	1	6500	1	0	next
conjunction	negative	5	Null	hit	F	10529	2	5593728	1	10667	1	0	next
conjunction	positive	5	T_green	incorrect	F	9407	2	5629731	1	9501	1	0	next
conjunction	positive	5	T_green	hit	J	8333	2	5664566	1	8501	1	0	next
conjunction	negative	15	Null	hit	F	15778	2	5698402	1	15834	1	0	next
conjunction	negative	1	Null	incorrect	J	8849	2	5739571	1	9001	1	0	next
conjunction	negative	15	Null	hit	F	25716	2	5773907	1	25835	1	0	next
conjunction	negative	30	Null	hit	F	65908	2	5825077	1	66004	1	0	next
conjunction	positive	5	T_green	hit	J	7848	2	5916416	1	8000	1	0	next
conjunction	positive	5	T_green	hit	J	10676	2	5949751	1	10834	1	0	next
conjunction	negative	1	Null	hit	F	11949	2	5985920	1	12001	1	0	next
conjunction	negative	5	Null	hit	F	9812	2	6023256	1	10001	1	0	next
conjunction	positive	30	T_green	hit	J	25837	2	6058592	1	26002	1	0	next
conjunction	positive	15	T_green	hit	J	17382	2	6109928	1	17501	1	0	next
conjunction	negative	1	Null	hit	F	8625	2	6152765	1	8667	1	0	next
conjunction	negative	15	Null	hit	F	14787	2	6186767	1	14834	1	0	next
conjunction	negative	1	Null	hit	F	8218	2	6226936	1	8334	1	0	next
conjunction	negative	30	Null	hit	F	22550	2	6260605	1	22668	1	0	next
conjunction	negative	5	Null	hit	F	9107	2	6308608	1	9167	1	0	next
conjunction	positive	5	T_green	hit	J	7245	2	6343110	1	7334	1	0	next
conjunction	negative	15	Null	hit	F	13778	2	6375779	1	13834	1	0	next
conjunction	positive	1	T_green	hit	J	5971	2	6414948	1	6167	1	0	next
conjunction	positive	15	T_green	hit	J	12069	2	6446450	1	12168	1	0	next
conjunction	positive	30	T_green	incorrect	F	24809	2	6483953	1	25002	1	0	next
conjunction	positive	30	T_green	hit	J	21351	2	6534289	1	21501	1	0	next
conjunction	negative	1	Null	hit	F	9715	2	6581126	1	9834	1	0	next
conjunction	negative	1	Null	hit	F	4947	2	6616295	1	5000	1	0	next
conjunction	positive	5	T_green	hit	J	8375	2	6646630	1	8501	1	0	next
conjunction	negative	30	Null	hit	F	27341	2	6680465	1	27502	1	0	next
conjunction	negative	1	Null	hit	F	6023	2	6733302	1	6167	1	0	next
conjunction	positive	1	T_green	hit	J	6044	2	6764804	1	6167	1	0	next
conjunction	negative	1	Null	hit	F	11023	2	6796306	1	11167	1	0	next
conjunction	negative	1	Null	incorrect	J	5401	2	6832809	1	5500	1	0	next
conjunction	negative	5	Null	hit	F	11846	2	6863644	1	12001	1	0	next
conjunction	positive	5	T_green	hit	J	10992	2	6900980	1	11167	1	0	next
conjunction	negative	15	Null	hit	F	18648	2	6937482	1	18835	1	0	next
conjunction	negative	5	Null	hit	F	9046	2	6981652	1	9167	1	0	next
conjunction	negative	1	Null	hit	F	7180	2	7016154	1	7334	1	0	next
conjunction	negative	5	Null	hit	F	7472	2	7048823	1	7667	1	0	next
conjunction	positive	1	T_green	hit	J	5511	2	7081825	1	5667	1	0	next
conjunction	positive	30	T_green	hit	J	11471	2	7112827	1	11667	1	0	next
conjunction	negative	15	Null	hit	F	15269	2	7149829	1	15334	1	0	next
conjunction	positive	15	T_green	hit	J	16040	2	7190499	1	16168	1	0	next
conjunction	positive	15	T_green	hit	J	6219	2	7232001	1	6334	1	0	next
conjunction	negative	15	Null	hit	F	12950	2	7263670	1	13001	1	0	next
conjunction	positive	30	T_green	incorrect	F	10456	2	7302006	1	10501	1	0	next
conjunction	positive	1	T_green	hit	J	6781	2	7337841	1	6834	1	0	next
conjunction	negative	30	Null	hit	F	30454	2	7370010	1	30502	1	0	next
conjunction	positive	15	T_green	hit	J	8539	2	7425847	1	8667	1	0	next
conjunction	negative	5	Null	hit	F	9897	2	7459849	1	10001	1	0	next
conjunction	negative	30	Null	hit	F	22243	2	7495185	1	22335	1	0	next
conjunction	positive	30	T_green	hit	J	11853	2	7542855	1	12001	1	0	next
conjunction	positive	1	T_green	hit	J	6999	2	7580190	1	7167	1	0	next
conjunction	negative	5	Null	hit	F	9856	2	7612693	1	10001	1	0	next
conjunction	negative	5	Null	hit	F	9561	2	7648028	1	9667	1	0	next
conjunction	negative	15	Null	hit	F	13441	2	7683031	1	13501	1	0	next
conjunction	negative	1	Null	hit	F	8205	2	7721866	1	8334	1	0	next
conjunction	negative	30	Null	hit	F	16459	2	7755535	1	16501	1	0	next
conjunction	negative	30	Null	hit	F	13183	2	7797371	1	13334	1	0	next
conjunction	positive	5	T_green	hit	J	9876	2	7836040	1	10001	1	0	next
conjunction	negative	30	Null	hit	F	16939	2	7871376	1	17001	1	0	next
conjunction	negative	1	Null	hit	F	7246	2	7913712	1	7334	1	0	next
conjunction	negative	15	Null	hit	F	10735	2	7946381	1	10834	1	0	next
conjunction	positive	1	T_green	hit	J	6730	2	7982550	1	6834	1	0	next
conjunction	positive	1	T_green	hit	J	4961	2	8014719	1	5000	1	0	next
conjunction	negative	1	Null	hit	F	7425	2	8045054	1	7500	1	0	next
conjunction	negative	30	Null	hit	F	16192	2	8077889	1	16334	1	0	next
conjunction	positive	15	T_green	hit	J	10362	2	8119559	1	10501	1	0	next
conjunction	negative	15	Null	hit	F	14529	2	8155394	1	14668	1	0	next
conjunction	negative	5	Null	hit	F	12926	2	8195397	1	13001	1	0	next
conjunction	positive	1	T_green	hit	J	6114	2	8233733	1	6167	1	0	next
conjunction	negative	15	Null	hit	F	11893	2	8265235	1	12001	1	0	next
conjunction	positive	15	T_green	hit	J	13116	2	8302571	1	13167	1	0	next
conjunction	negative	5	Null	hit	F	7737	2	8341073	1	7834	1	0	next
conjunction	positive	5	T_green	hit	J	7367	2	8374242	1	7500	1	0	next
conjunction	negative	5	Null	hit	F	15814	2	8407077	1	16001	1	0	next
conjunction	positive	15	T_green	hit	J	7598	2	8448414	1	7667	1	0	next
conjunction	positive	15	T_green	hit	J	12516	2	8481416	1	12668	1	0	next
conjunction	positive	5	T_green	hit	J	6997	2	8519418	1	7167	1	0	next
conjunction	negative	15	Null	hit	F	11454	2	8551920	1	11501	1	0	next
conjunction	negative	15	Null	hit	F	25019	2	8588756	1	25168	1	0	next
conjunction	negative	30	Null	hit	F	19317	2	8639259	1	19501	1	0	next
conjunction	positive	30	T_green	incorrect	F	9842	2	8684095	1	10001	1	0	next
conjunction	negative	5	Null	hit	F	8425	2	8719431	1	8501	1	0	next
conjunction	positive	5	T_green	hit	J	9633	2	8753267	1	9834	1	0	next
conjunction	positive	5	T_green	hit	J	21024	2	8788436	1	21168	1	0	next
conjunction	positive	30	T_green	hit	J	19643	2	8834939	1	19835	1	0	next
conjunction	negative	30	Null	incorrect	J	14636	2	8880108	1	14834	1	0	next
conjunction	negative	30	Null	hit	F	20387	2	8920277	1	20501	1	0	next
conjunction	negative	30	Null	hit	F	18392	2	8966114	1	18501	1	0	next
conjunction	negative	30	Null	hit	F	15994	2	9009950	1	16168	1	0	next
conjunction	positive	5	T_green	hit	J	7295	2	9051453	1	7500	1	0	next
conjunction	negative	30	Null	hit	F	17342	2	9084288	1	17501	1	0	next
conjunction	positive	1	T_green	hit	J	6343	2	9127124	1	6500	1	0	next
conjunction	positive	30	T_green	hit	J	10991	2	9158960	1	11167	1	0	next
conjunction	positive	15	T_green	incorrect	F	10489	2	9195462	1	10667	1	0	next
conjunction	positive	1	T_green	hit	J	6646	2	9231464	1	6834	1	0	next
conjunction	positive	30	T_green	hit	J	10159	2	9263633	1	10334	1	0	next
conjunction	positive	30	T_green	hit	J	7772	2	9299302	1	7834	1	0	next
conjunction	positive	30	T_green	hit	J	5804	2	9332471	1	6000	1	0	next
conjunction	positive	1	T_green	hit	J	5669	2	9363806	1	5834	1	0	next
conjunction	positive	30	T_green	hit	J	18662	2	9394975	1	18834	1	0	next
conjunction	positive	1	T_green	hit	J	5693	2	9439144	1	5834	1	0	next
conjunction	positive	1	T_green	hit	J	5403	2	9470313	1	5500	1	0	next
conjunction	positive	15	T_green	hit	J	9609	2	9501148	1	9667	1	0	next
conjunction	positive	30	T_green	incorrect	F	23090	2	9536151	1	23168	1	0	next
conjunction	positive	15	T_green	hit	J	11387	2	9584654	1	11501	1	0	next
conjunction	positive	15	T_green	hit	J	15352	2	9621490	1	15501	1	0	next
conjunction	positive	15	T_green	hit	J	14838	2	9662326	1	15001	1	0	next
conjunction	negative	30	Null	hit	F	26223	2	9861505	1	26335	1	0	next
conjunction	negative	30	Null	hit	F	17753	2	9913175	1	17834	1	0	next
conjunction	positive	15	T_green	hit	J	17305	2	9956345	1	17501	1	0	next
conjunction	positive	15	T_green	hit	J	12711	2	9999181	1	12834	1	0	next
conjunction	negative	1	Null	hit	F	9583	2	10037350	1	9667	1	0	next
conjunction	positive	15	T_green	hit	J	9144	2	10072352	1	9334	1	0	next
conjunction	negative	1	Null	hit	F	6315	2	10107021	1	6500	1	0	next
conjunction	positive	15	T_green	incorrect	F	8237	2	10138856	1	8334	1	0	next
conjunction	negative	5	Null	hit	F	10252	2	10172525	1	10334	1	0	next
conjunction	negative	5	Null	hit	F	9144	2	10208194	1	9334	1	0	next
conjunction	negative	30	Null	hit	F	17195	2	10242863	1	17334	1	0	next
conjunction	negative	1	Null	hit	F	8768	2	10285533	1	8834	1	0	next
conjunction	positive	1	T_green	hit	J	23401	2	10319702	1	23502	1	0	next
conjunction	positive	1	T_green	hit	J	5602	2	10368538	1	5667	1	0	next
conjunction	positive	1	T_green	hit	J	5803	2	10399540	1	6000	1	0	next
conjunction	negative	1	Null	hit	F	6305	2	10430875	1	6334	1	0	next
conjunction	positive	30	T_green	hit	J	12400	2	10462544	1	12501	1	0	next
conjunction	negative	1	Null	hit	F	7684	2	10500380	1	7834	1	0	next
conjunction	negative	1	Null	hit	F	6997	2	10533549	1	7167	1	0	next
conjunction	negative	30	Null	hit	F	20897	2	10566051	1	21001	1	0	next
conjunction	positive	5	T_green	hit	J	10881	2	10612387	1	11001	1	0	next
conjunction	negative	15	Null	hit	F	13104	2	10648723	1	13168	1	0	next
conjunction	positive	1	T_green	incorrect	F	8843	2	10687225	1	9001	1	0	next
conjunction	positive	5	T_green	hit	J	7631	2	10721561	1	7834	1	0	next
conjunction	positive	15	T_green	hit	J	9181	2	10754730	1	9334	1	0	next
conjunction	negative	30	Null	hit	F	16434	2	10789399	1	16501	1	0	next
conjunction	negative	5	Null	hit	F	8039	2	10831235	1	8167	1	0	next
conjunction	negative	15	Null	hit	F	9098	2	10864737	1	9167	1	0	next
conjunction	positive	5	T_green	hit	J	7877	2	10899239	1	8000	1	0	next
conjunction	positive	1	T_green	hit	J	7341	2	10932575	1	7500	1	0	next
conjunction	negative	1	Null	hit	F	10028	2	10965410	1	10167	1	0	next
conjunction	positive	30	T_green	hit	J	9086	2	11000912	1	9167	1	0	next
conjunction	negative	15	Null	hit	F	16502	2	11035415	1	16668	1	0	next
conjunction	negative	15	Null	hit	F	12104	2	11077417	1	12167	1	0	next
conjunction	positive	1	T_green	hit	J	6922	2	11114920	1	7000	1	0	next
conjunction	negative	5	Null	hit	F	6587	2	11147255	1	6667	1	0	next
conjunction	positive	30	T_green	hit	J	8986	2	11179257	1	9167	1	0	next
conjunction	positive	5	T_green	hit	J	5843	2	11213760	1	6000	1	0	next
conjunction	negative	1	Null	hit	F	8109	2	11245095	1	8167	1	0	next
conjunction	negative	1	Null	hit	F	7566	2	11278597	1	7667	1	0	next
conjunction	negative	15	Null	hit	F	43367	2	11311599	1	43503	1	0	next
conjunction	positive	1	T_green	hit	J	8771	2	11380437	1	8834	1	0	next
conjunction	positive	30	T_green	hit	J	18763	2	11414606	1	18835	1	0	next
conjunction	negative	5	Null	hit	F	8995	2	11458775	1	9167	1	0	next
conjunction	negative	30	Null	hit	F	18013	2	11493278	1	18168	1	0	next
conjunction	positive	30	T_green	hit	J	21393	2	11536780	1	21501	1	0	next
conjunction	negative	30	Null	incorrect	J	28802	2	11583617	1	29002	1	0	next
conjunction	negative	1	Null	hit	F	12859	2	11637954	1	13001	1	0	next
conjunction	positive	30	T_green	hit	J	15967	2	11676290	1	16168	1	0	next
conjunction	positive	30	T_green	hit	J	6625	2	11717792	1	6667	1	0	next
conjunction	positive	15	T_green	hit	J	9343	2	11749794	1	9501	1	0	next
conjunction	negative	30	Null	hit	F	19470	2	11784630	1	19668	1	0	next
conjunction	negative	5	Null	hit	F	11908	2	11829633	1	12001	1	0	next
conjunction	negative	1	Null	hit	F	20970	2	11866969	1	21168	1	0	next
conjunction	negative	30	Null	hit	F	14951	2	11913472	1	15001	1	0	next
conjunction	negative	5	Null	hit	F	7416	2	11953808	1	7501	1	0	next
conjunction	negative	30	Null	hit	F	16501	2	11986643	1	16668	1	0	next
conjunction	negative	5	Null	hit	F	6660	2	12028646	1	6834	1	0	next
conjunction	negative	1	Null	hit	F	5692	2	12060814	1	5834	1	0	next
conjunction	negative	5	Null	hit	F	6843	2	12091983	1	7000	1	0	next
conjunction	negative	15	Null	hit	F	9069	2	12124319	1	9167	1	0	next
conjunction	negative	30	Null	hit	F	9448	2	12158821	1	9501	1	0	next
conjunction	negative	5	Null	hit	F	6133	2	12193656	1	6334	1	0	next
conjunction	negative	30	Null	hit	F	12226	2	12225325	1	12334	1	0	next
conjunction	positive	5	T_green	hit	J	7198	2	12262994	1	7334	1	0	next
conjunction	negative	5	Null	hit	F	6528	2	12295663	1	6667	1	0	next
conjunction	negative	5	Null	hit	F	8931	2	12327665	1	9001	1	0	next
conjunction	negative	1	Null	hit	F	7712	2	12362001	1	7834	1	0	next
conjunction	positive	30	T_green	hit	J	8145	2	12395170	1	8334	1	0	next
conjunction	positive	1	T_green	hit	J	5676	2	12428838	1	5834	1	0	next
conjunction	negative	15	Null	hit	F	7469	2	12460007	1	7667	1	0	next
conjunction	positive	1	T_green	hit	J	5345	2	12493009	1	5500	1	0	next
conjunction	negative	30	Null	hit	F	14995	2	12523845	1	15168	1	0	next
conjunction	positive	1	T_green	hit	J	6009	2	12564347	1	6167	1	0	next
conjunction	positive	5	T_green	hit	J	6029	2	12595849	1	6167	1	0	next
conjunction	negative	15	Null	hit	F	11490	2	12627351	1	11667	1	0	next
conjunction	negative	30	Null	hit	F	11449	2	12664354	1	11501	1	0	next
conjunction	negative	1	Null	hit	F	5174	2	12701189	1	5334	1	0	next
conjunction	negative	5	Null	hit	F	9066	2	12731858	1	9167	1	0	next
conjunction	positive	15	T_green	incorrect	F	11044	2	12766360	1	11167	1	0	next
conjunction	negative	1	Null	hit	F	7021	2	12802863	1	7167	1	0	next
conjunction	positive	15	T_green	hit	J	8121	2	12835365	1	8167	1	0	next
conjunction	negative	30	Null	hit	F	11900	2	12868867	1	12001	1	0	next
conjunction	positive	5	T_green	hit	J	13126	2	12906203	1	13334	1	0	next
conjunction	positive	5	T_green	hit	J	6137	2	12944872	1	6167	1	0	next
conjunction	negative	15	Null	hit	F	12554	2	12976374	1	12667	1	0	next
conjunction	positive	1	T_green	hit	J	5914	2	13014376	1	6000	1	0	next
conjunction	positive	15	T_green	hit	J	6740	2	13045712	1	6834	1	0	next
conjunction	negative	1	Null	hit	F	8332	2	13077880	1	8501	1	0	next
conjunction	positive	5	T_green	hit	J	7295	2	13111716	1	7334	1	0	next
conjunction	positive	30	T_green	hit	J	13667	2	13144385	1	13834	1	0	next
conjunction	negative	15	Null	hit	F	14020	2	13183554	1	14168	1	0	next
conjunction	negative	15	Null	hit	F	8920	2	13223057	1	9001	1	0	next
conjunction	positive	30	T_green	hit	J	7864	2	13257392	1	8000	1	0	next
conjunction	negative	15	Null	hit	F	12290	2	13290728	1	12334	1	0	next
conjunction	positive	30	T_green	incorrect	F	11742	2	13328397	1	11834	1	0	next
conjunction	negative	15	Null	hit	F	9293	2	13365566	1	9334	1	0	next
conjunction	negative	5	Null	hit	F	6786	2	13400235	1	6834	1	0	next
conjunction	positive	15	T_green	hit	J	10938	2	13432403	1	11001	1	0	next
conjunction	negative	30	Null	hit	F	17802	2	13468739	1	17834	1	0	next
conjunction	positive	5	T_green	hit	J	5993	2	13511909	1	6167	1	0	next
conjunction	positive	5	T_green	hit	J	5692	2	13543411	1	5834	1	0	next
conjunction	negative	15	Null	hit	F	8606	2	13574579	1	8667	1	0	next
conjunction	negative	5	Null	hit	F	10925	2	13608582	1	11001	1	0	next
conjunction	positive	1	T_green	hit	J	5949	2	13644917	1	6000	1	0	next
conjunction	positive	15	T_green	hit	J	7096	2	13676253	1	7167	1	0	next
conjunction	positive	5	T_green	hit	J	4994	2	13708755	1	5167	1	0	next
conjunction	positive	5	T_green	hit	J	4892	2	13739257	1	5000	1	0	next
conjunction	negative	15	Null	hit	F	14077	2	13769592	1	14168	1	0	next
conjunction	positive	5	T_green	hit	J	6898	2	13809095	1	7000	1	0	next
conjunction	negative	5	Null	hit	F	9121	2	13841430	1	9167	1	0	next
conjunction	positive	15	T_green	hit	J	11262	2	13875932	1	11334	1	0	next
conjunction	negative	15	Null	hit	F	12512	2	13912601	1	12668	1	0	next
conjunction	positive	30	T_green	hit	J	14351	2	13950604	1	14501	1	0	next
conjunction	positive	1	T_green	hit	J	6196	2	13990440	1	6334	1	0	next
conjunction	positive	15	T_green	hit	J	10048	2	14022108	1	10167	1	0	next
conjunction	positive	1	T_green	hit	J	8467	2	14057611	1	8500	1	0	next
conjunction	positive	1	T_green	hit	J	6153	2	14091446	1	6334	1	0	next
conjunction	positive	5	T_green	hit	J	6165	2	14123115	1	6334	1	0	next
conjunction	positive	30	T_green	hit	J	10498	2	14154784	1	10667	1	0	next
conjunction	positive	30	T_green	hit	J	8897	2	14190786	1	9000	1	0	next
conjunction	positive	30	T_green	hit	J	9121	2	14225122	1	9334	1	0	next
conjunction	positive	1	T_green	hit	J	4852	2	14259790	1	5000	1	0	next
conjunction	positive	30	T_green	hit	J	16599	2	14290126	1	16668	1	0	next
conjunction	positive	15	T_green	hit	J	5477	2	14332129	1	5667	1	0	next
conjunction	positive	15	T_green	hit	J	7916	2	14363131	1	8000	1	0	next
conjunction	positive	15	T_green	hit	J	18741	2	14396466	1	18835	1	0	next
conjunction	positive	5	T_green	hit	J	10572	2	14440636	1	10667	1	0	next
disjunction	positive	5	T_blue	hit	J	9547	2	14761990	1	9667	1	0	next
disjunction	positive	30	S_brown	hit	J	15825	2	14796992	1	16001	1	0	next
disjunction	negative	5	Null	hit	F	10971	2	14838328	1	11167	1	0	next
disjunction	negative	5	Null	hit	F	8229	2	14874830	1	8334	1	0	next
disjunction	positive	1	S_green	hit	J	8639	2	14908499	1	8834	1	0	next
disjunction	positive	1	T_blue	hit	J	5833	2	14942668	1	6000	1	0	next
disjunction	negative	15	Null	hit	F	13379	2	14974003	1	13501	1	0	next
disjunction	negative	1	Null	hit	F	7664	2	15012839	1	7834	1	0	next
disjunction	negative	1	Null	hit	F	10177	2	15046008	1	10334	1	0	next
disjunction	negative	30	Null	hit	F	23787	2	15081677	1	23835	1	0	next
disjunction	negative	5	Null	hit	F	7099	2	15130847	1	7167	1	0	next
disjunction	positive	15	X_blue	hit	J	6437	2	15163349	1	6500	1	0	next
disjunction	negative	1	Null	hit	F	7883	2	15195184	1	8001	1	0	next
disjunction	positive	30	X_blue	hit	J	6868	2	15228520	1	7000	1	0	next
disjunction	positive	15	X_blue	hit	J	5894	2	15260855	1	6000	1	0	next
disjunction	positive	5	S_green	hit	J	7840	2	15292191	1	8000	1	0	next
disjunction	negative	30	Null	hit	F	24263	2	15325526	1	24335	1	0	next
disjunction	positive	1	S_green	hit	J	5316	2	15375196	1	5500	1	0	next
disjunction	negative	5	Null	hit	F	10322	2	15406032	1	10501	1	0	next
disjunction	negative	15	Null	hit	F	10487	2	15441867	1	10667	1	0	next
disjunction	positive	5	S_green	hit	J	6325	2	15477870	1	6500	1	0	next
disjunction	positive	15	X_blue	hit	J	5531	2	15509705	1	5667	1	0	next
disjunction	positive	30	S_brown	incorrect	F	10529	2	15540707	1	10667	1	0	next
disjunction	negative	30	Null	hit	F	26049	2	15576709	1	26168	1	0	next
disjunction	negative	15	Null	hit	F	17907	2	15628213	1	18001	1	0	next
disjunction	positive	30	T_blue	hit	J	7210	2	15671549	1	7334	1	0	next
disjunction	negative	15	Null	hit	F	17906	2	15704217	1	18001	1	0	next
disjunction	positive	15	S_brown	hit	J	7686	2	15747554	1	7834	1	0	next
disjunction	negative	30	Null	hit	F	15961	2	15780722	1	16001	1	0	next
disjunction	positive	1	X_blue	hit	J	5666	2	15822059	1	5834	1	0	next
disjunction	negative	30	Null	hit	F	16098	2	15853227	1	16168	1	0	next
disjunction	positive	5	S_brown	hit	J	8514	2	15894730	1	8667	1	0	next
disjunction	negative	30	Null	hit	F	24755	2	15928732	1	24835	1	0	next
disjunction	negative	5	Null	hit	F	6426	2	15978902	1	6500	1	0	next
disjunction	negative	5	Null	hit	F	5952	2	16010737	1	6000	1	0	next
disjunction	positive	30	S_brown	hit	J	14297	2	16042073	1	14501	1	0	next
disjunction	positive	30	T_blue	hit	J	6302	2	16081909	1	6501	1	0	next
disjunction	negative	30	Null	hit	F	25187	2	16113744	1	25335	1	0	next
disjunction	positive	15	T_blue	hit	J	4917	2	16164414	1	5000	1	0	next
disjunction	positive	15	S_green	hit	J	5624	2	16194749	1	5667	1	0	next
disjunction	negative	5	Null	hit	F	8224	2	16225751	1	8334	1	0	next
disjunction	negative	15	Null	hit	F	8797	2	16259420	1	8834	1	0	next
disjunction	positive	30	X_blue	hit	J	5509	2	16293589	1	5667	1	0	next
disjunction	positive	1	S_green	hit	J	7145	2	16324591	1	7334	1	0	next
disjunction	positive	30	X_blue	hit	J	5838	2	16357260	1	6000	1	0	next
disjunction	negative	1	Null	hit	F	7624	2	16388595	1	7667	1	0	next
disjunction	negative	30	Null	hit	F	16223	2	16421597	1	16334	1	0	next
disjunction	positive	1	S_brown	hit	J	7193	2	16463267	1	7334	1	0	next
disjunction	positive	15	T_blue	hit	J	7167	2	16495936	1	7334	1	0	next
disjunction	positive	5	S_brown	hit	J	5857	2	16528604	1	6000	1	0	next
disjunction	positive	1	X_blue	hit	J	6204	2	16559940	1	6334	1	0	next
disjunction	positive	1	X_blue	hit	J	8295	2	16591608	1	8334	1	0	next
disjunction	positive	15	S_green	hit	J	11747	2	16625277	1	11834	1	0	next
disjunction	positive	1	S_green	hit	J	6100	2	16662446	1	6167	1	0	next
disjunction	positive	15	S_green	hit	J	8198	2	16693948	1	8334	1	0	next
disjunction	positive	30	S_green	hit	J	7651	2	16727617	1	7834	1	0	next
disjunction	positive	30	X_blue	hit	J	5042	2	16760786	1	5167	1	0	next
disjunction	positive	30	S_brown	hit	J	6382	2	16791288	1	6500	1	0	next
disjunction	positive	5	X_blue	hit	J	4307	2	16823123	1	4500	1	0	next
disjunction	positive	1	S_brown	hit	J	5191	2	16852959	1	5334	1	0	next
disjunction	positive	15	X_blue	hit	J	4443	2	16883627	1	4500	1	0	next
disjunction	positive	30	S_green	hit	J	5649	2	16913463	1	5834	1	0	next
disjunction	negative	1	Null	hit	F	6003	2	16944631	1	6167	1	0	next
disjunction	positive	1	T_blue	hit	J	8581	2	16976133	1	8667	1	0	next
disjunction	positive	1	X_blue	hit	J	4819	2	17010136	1	5000	1	0	next
disjunction	negative	1	Null	hit	F	7285	2	17040471	1	7334	1	0	next
disjunction	positive	15	S_green	hit	J	11415	2	17073140	1	11501	1	0	next
disjunction	positive	15	T_blue	hit	J	8021	2	17109975	1	8167	1	0	next
disjunction	negative	5	Null	hit	F	7961	2	17143478	1	8000	1	0	next
disjunction	negative	15	Null	hit	F	20866	2	17176813	1	21001	1	0	next
disjunction	positive	1	S_green	hit	J	5571	2	17223149	1	5667	1	0	next
disjunction	negative	5	Null	hit	F	6729	2	17254151	1	6834	1	0	next
disjunction	positive	5	T_blue	hit	J	6241	2	17286320	1	6334	1	0	next
disjunction	negative	30	Null	hit	F	16976	2	17317989	1	17168	1	0	next
disjunction	negative	1	Null	hit	F	6951	2	17360492	1	7000	1	0	next
disjunction	positive	15	X_blue	hit	J	4857	2	17392827	1	5000	1	0	next
disjunction	negative	15	Null	hit	F	19644	2	17423162	1	19835	1	0	next
disjunction	positive	30	X_blue	hit	J	5675	2	17468332	1	5834	1	0	next
disjunction	negative	15	Null	hit	F	14509	2	17499501	1	14668	1	0	next
disjunction	positive	15	X_blue	hit	J	6185	2	17539503	1	6334	1	0	next
disjunction	negative	5	Null	hit	F	6677	2	17571172	1	6834	1	0	next
disjunction	positive	1	S_green	hit	J	6187	2	17603341	1	6334	1	0	next
disjunction	negative	1	Null	hit	F	7322	2	17635009	1	7501	1	0	next
disjunction	positive	15	T_blue	hit	J	5527	2	17667845	1	5667	1	0	next
disjunction	negative	5	Null	hit	F	6526	2	17698847	1	6667	1	0	next
disjunction	negative	30	Null	hit	F	23484	2	17730849	1	23668	1	0	next
disjunction	negative	15	Null	hit	F	8723	2	17779852	1	8834	1	0	next
disjunction	negative	30	Null	hit	F	11194	2	17814021	1	11334	1	0	next
disjunction	positive	30	T_blue	hit	J	5247	2	17850690	1	5334	1	0	next
disjunction	negative	15	Null	hit	F	11379	2	17881359	1	11501	1	0	next
disjunction	positive	15	S_green	hit	J	7824	2	17918194	1	8001	1	0	next
disjunction	negative	15	Null	hit	F	10970	2	17951530	1	11167	1	0	next
disjunction	positive	1	S_green	hit	J	5027	2	17988032	1	5167	1	0	next
disjunction	positive	5	T_blue	hit	J	5247	2	18018534	1	5334	1	0	next
disjunction	positive	1	T_blue	hit	J	4018	2	18049203	1	4167	1	0	next
disjunction	negative	15	Null	hit	F	8597	2	18078705	1	8667	1	0	next
disjunction	negative	30	Null	hit	F	21957	2	18112707	1	22001	1	0	next
disjunction	negative	30	Null	hit	F	10622	2	18160044	1	10667	1	0	next
disjunction	negative	5	Null	hit	F	6138	2	18196046	1	6167	1	0	next
disjunction	positive	30	T_blue	hit	J	6317	2	18227548	1	6500	1	0	next
disjunction	negative	5	Null	incorrect	J	8404	2	18259383	1	8501	1	0	next
disjunction	negative	30	Null	hit	F	23210	2	18293219	1	23335	1	0	next
disjunction	positive	5	T_blue	hit	J	11501	2	18341889	1	11668	1	0	next
disjunction	positive	5	T_blue	hit	J	5061	2	18378891	1	5167	1	0	next
disjunction	positive	30	S_brown	hit	J	9917	2	18409393	1	10001	1	0	next
disjunction	positive	5	S_brown	hit	J	6424	2	18444729	1	6500	1	0	next
disjunction	negative	15	Null	hit	F	8191	2	18476564	1	8334	1	0	next
disjunction	negative	1	Null	hit	F	5560	2	18510233	1	5667	1	0	next
disjunction	negative	5	Null	hit	F	8960	2	18541235	1	9001	1	0	next
disjunction	positive	5	S_brown	hit	J	6465	2	18575570	1	6667	1	0	next
disjunction	negative	30	Null	hit	F	7743	2	18607573	1	7834	1	0	next
disjunction	negative	30	Null	hit	F	7056	2	18640741	1	7167	1	0	next
disjunction	negative	1	Null	hit	F	8474	2	18673243	1	8667	1	0	next
disjunction	positive	5	S_brown	hit	J	8874	2	18707246	1	9001	1	0	next
disjunction	positive	5	S_brown	hit	J	7017	2	18741581	1	7167	1	0	next
disjunction	positive	5	S_brown	hit	J	7795	2	18774083	1	7834	1	0	next
disjunction	positive	5	S_brown	hit	J	7909	2	18807252	1	8001	1	0	next
disjunction	negative	15	Null	hit	F	12815	2	18840588	1	13001	1	0	next
disjunction	negative	5	Null	hit	F	7440	2	18878924	1	7500	1	0	next
disjunction	negative	15	Null	hit	F	6606	2	18911759	1	6667	1	0	next
disjunction	negative	5	Null	hit	F	9164	2	18943761	1	9334	1	0	next
disjunction	negative	1	Null	hit	F	6654	2	18978430	1	6834	1	0	next
disjunction	negative	1	Null	hit	F	4888	2	19010599	1	5000	1	0	next
disjunction	negative	1	Null	hit	F	5593	2	19040934	1	5667	1	0	next
disjunction	negative	15	Null	hit	F	7233	2	19071936	1	7334	1	0	next
disjunction	negative	1	Null	hit	F	6405	2	19104605	1	6500	1	0	next
disjunction	negative	1	Null	hit	F	6412	2	19136440	1	6500	1	0	next
disjunction	negative	1	Null	hit	F	4656	2	19168276	1	4834	1	0	next
disjunction	positive	5	T_blue	hit	J	6576	2	19499964	1	6667	1	0	next
disjunction	negative	1	Null	hit	F	6255	2	19531966	1	6334	1	0	next
disjunction	positive	1	S_brown	hit	J	5148	2	19563635	1	5334	1	0	next
disjunction	negative	15	Null	hit	F	12241	2	19594303	1	12334	1	0	next
disjunction	positive	15	X_blue	hit	J	8169	2	19631972	1	8334	1	0	next
disjunction	positive	5	S_green	hit	J	5702	2	19665641	1	5834	1	0	next
disjunction	negative	5	Null	hit	F	10056	2	19696810	1	10167	1	0	next
disjunction	negative	1	Null	hit	F	6071	2	19732312	1	6167	1	0	next
disjunction	positive	5	S_green	hit	J	7053	2	19763814	1	7167	1	0	next
disjunction	positive	1	S_green	hit	J	6710	2	19796316	1	6834	1	0	next
disjunction	positive	5	T_blue	hit	J	5263	2	19828485	1	5334	1	0	next
disjunction	positive	15	T_blue	hit	J	4836	2	19859154	1	5000	1	0	next
disjunction	positive	1	S_green	hit	J	6180	2	19889489	1	6334	1	0	next
disjunction	positive	15	X_blue	hit	J	6034	2	19921158	1	6167	1	0	next
disjunction	negative	15	Null	hit	F	11972	2	19952660	1	12167	1	0	next
disjunction	positive	30	T_blue	hit	J	7110	2	19990162	1	7167	1	0	next
disjunction	negative	5	Null	hit	F	9489	2	20022664	1	9667	1	0	next
disjunction	positive	30	S_green	incorrect	F	8568	2	20057667	1	8667	1	0	next
disjunction	negative	30	Null	hit	F	9287	2	20091669	1	9334	1	0	next
disjunction	positive	15	S_green	incorrect	F	7576	2	20126338	1	7667	1	0	next
disjunction	negative	1	Null	hit	F	7697	2	20159340	1	7834	1	0	next
disjunction	positive	15	S_brown	hit	J	6049	2	20192509	1	6167	1	0	next
disjunction	negative	5	Null	hit	F	11668	2	20224011	1	11834	1	0	next
disjunction	negative	15	Null	hit	F	9700	2	20261180	1	9834	1	0	next
disjunction	negative	5	Null	hit	F	9733	2	20296349	1	9834	1	0	next
disjunction	positive	15	S_green	hit	J	6724	2	20331518	1	6834	1	0	next
disjunction	negative	30	Null	hit	F	18236	2	20363686	1	18334	1	0	next
disjunction	negative	15	Null	hit	F	9288	2	20407356	1	9334	1	0	next
disjunction	positive	15	S_green	hit	J	5499	2	20442025	1	5667	1	0	next
disjunction	positive	1	T_blue	hit	J	5696	2	20473027	1	5834	1	0	next
disjunction	positive	15	S_brown	incorrect	F	7487	2	20504196	1	7667	1	0	next
disjunction	positive	5	X_blue	hit	J	5528	2	20537198	1	5667	1	0	next
disjunction	positive	5	X_blue	hit	J	4447	2	20568200	1	4500	1	0	next
disjunction	negative	15	Null	hit	F	13814	2	20598035	1	14001	1	0	next
disjunction	negative	30	Null	hit	F	18799	2	20637371	1	19001	1	0	next
disjunction	positive	5	T_blue	hit	J	6144	2	20681707	1	6334	1	0	next
disjunction	negative	5	Null	hit	F	10795	2	20713376	1	10834	1	0	next
disjunction	positive	15	S_brown	incorrect	F	9668	2	20749545	1	9834	1	0	next
disjunction	negative	5	Null	hit	F	10501	2	20784714	1	10667	1	0	next
disjunction	positive	5	S_green	hit	J	7298	2	20820716	1	7334	1	0	next
disjunction	negative	15	Null	hit	F	14950	2	20853385	1	15001	1	0	next
disjunction	negative	5	Null	hit	F	5975	2	20893721	1	6167	1	0	next
disjunction	positive	1	T_blue	hit	J	5993	2	20925223	1	6167	1	0	next
disjunction	negative	30	Null	hit	F	20893	2	20956725	1	21001	1	0	next
disjunction	positive	5	S_brown	hit	J	6398	2	21003061	1	6500	1	0	next
disjunction	positive	5	S_green	hit	J	5445	2	21034897	1	5500	1	0	next
disjunction	negative	1	Null	hit	F	6928	2	21065732	1	7000	1	0	next
disjunction	positive	30	S_green	hit	J	7394	2	21098067	1	7501	1	0	next
disjunction	positive	5	T_blue	hit	J	5120	2	21130903	1	5167	1	0	next
disjunction	negative	5	Null	hit	F	13498	2	21161405	1	13668	1	0	next
disjunction	negative	5	Null	hit	F	6497	2	21200407	1	6667	1	0	next
disjunction	positive	1	X_blue	hit	J	6015	2	21232410	1	6167	1	0	next
disjunction	negative	30	Null	hit	F	10353	2	21263912	1	10501	1	0	next
disjunction	negative	30	Null	hit	F	15160	2	21299747	1	15334	1	0	next
disjunction	negative	30	Null	hit	F	17211	2	21340417	1	17334	1	0	next
disjunction	negative	1	Null	hit	F	5263	2	21383086	1	5334	1	0	next
disjunction	positive	1	T_blue	hit	J	5313	2	21413755	1	5500	1	0	next
disjunction	negative	5	Null	incorrect	J	8400	2	21444590	1	8500	1	0	next
disjunction	negative	1	Null	hit	F	6728	2	21478425	1	6834	1	0	next
disjunction	negative	1	Null	hit	F	4797	2	21510594	1	5000	1	0	next
disjunction	positive	1	X_blue	hit	J	6464	2	21540929	1	6667	1	0	next
disjunction	negative	5	Null	hit	F	7583	2	21572932	1	7667	1	0	next
disjunction	positive	30	S_brown	hit	J	10262	2	21605934	1	10334	1	0	next
disjunction	positive	15	S_brown	hit	J	6593	2	21641603	1	6667	1	0	next
disjunction	positive	5	S_green	hit	J	6433	2	21673605	1	6500	1	0	next
disjunction	negative	5	Null	hit	F	12999	2	21705440	1	13168	1	0	next
disjunction	negative	30	Null	hit	F	12416	2	21743943	1	12501	1	0	next
disjunction	negative	1	Null	hit	F	6100	2	21781779	1	6167	1	0	next
disjunction	positive	1	T_blue	hit	J	6120	2	21813280	1	6167	1	0	next
disjunction	negative	5	Null	hit	F	7098	2	21844783	1	7167	1	0	next
disjunction	positive	1	X_blue	hit	J	5637	2	21877285	1	5834	1	0	next
disjunction	negative	5	Null	hit	F	6790	2	21908453	1	6834	1	0	next
disjunction	negative	30	Null	hit	F	12059	2	21940622	1	12167	1	0	next
disjunction	negative	5	Null	hit	F	5438	2	21978125	1	5500	1	0	next
disjunction	negative	5	Null	hit	F	5486	2	22008960	1	5667	1	0	next
disjunction	positive	1	T_blue	hit	J	5843	2	22039962	1	6000	1	0	next
disjunction	positive	30	S_green	hit	J	6829	2	22071297	1	7000	1	0	next
disjunction	positive	5	X_blue	hit	J	5694	2	22103633	1	5834	1	0	next
disjunction	positive	15	S_brown	hit	J	12447	2	22134801	1	12501	1	0	next
disjunction	positive	5	X_blue	hit	J	5812	2	22172637	1	6000	1	0	next
disjunction	negative	1	Null	hit	F	8398	2	22203973	1	8500	1	0	next
disjunction	negative	30	Null	hit	F	21924	2	22237808	1	22001	1	0	next
disjunction	negative	1	Null	hit	F	7548	2	22285144	1	7667	1	0	next
disjunction	positive	5	S_brown	hit	J	6065	2	22318147	1	6167	1	0	next
disjunction	positive	1	X_blue	hit	J	5605	2	22349649	1	5667	1	0	next
disjunction	positive	30	X_blue	hit	J	5484	2	22380651	1	5667	1	0	next
disjunction	negative	1	Null	hit	F	6004	2	22411653	1	6167	1	0	next
disjunction	positive	1	S_brown	hit	J	5702	2	22443155	1	5834	1	0	next
disjunction	negative	30	Null	hit	F	10054	2	22474323	1	10167	1	0	next
disjunction	negative	30	Null	hit	F	19514	2	22509826	1	19668	1	0	next
disjunction	negative	15	Null	hit	F	8431	2	22554829	1	8501	1	0	next
disjunction	positive	30	X_blue	hit	J	6757	2	22588664	1	6834	1	0	next
disjunction	negative	1	Null	hit	F	5149	2	22620833	1	5334	1	0	next
disjunction	negative	1	Null	hit	F	5040	2	22651502	1	5167	1	0	next
disjunction	negative	1	Null	hit	F	6379	2	22682004	1	6500	1	0	next
disjunction	positive	30	S_green	hit	J	14385	2	22713839	1	14501	1	0	next
disjunction	positive	15	S_green	hit	J	8309	2	22753675	1	8501	1	0	next
disjunction	negative	1	Null	hit	F	6155	2	22787510	1	6334	1	0	next
disjunction	positive	30	S_green	hit	J	6967	2	22819179	1	7167	1	0	next
disjunction	negative	1	Null	hit	F	6787	2	22851681	1	6834	1	0	next
disjunction	positive	15	S_brown	hit	J	8857	2	22883850	1	9001	1	0	next
disjunction	negative	30	Null	incorrect	J	6043	2	22918186	1	6167	1	0	next
disjunction	positive	15	T_blue	hit	J	5742	2	22949688	1	5834	1	0	next
disjunction	negative	30	Null	hit	F	19854	2	22980856	1	20001	1	0	next
disjunction	negative	15	Null	hit	F	7960	2	23026193	1	8001	1	0	next
disjunction	negative	15	Null	hit	F	8545	2	23059528	1	8667	1	0	next
disjunction	positive	15	T_blue	hit	J	5903	2	23093530	1	6000	1	0	next
disjunction	negative	30	Null	hit	F	10409	2	23124866	1	10501	1	0	next
disjunction	negative	30	Null	hit	F	22094	2	23160701	1	22168	1	0	next
disjunction	positive	15	S_brown	hit	J	7874	2	23208204	1	8000	1	0	next
disjunction	negative	15	Null	hit	F	11177	2	23241540	1	11334	1	0	next
disjunction	negative	15	Null	hit	F	9709	2	23278209	1	9834	1	0	next
disjunction	negative	15	Null	hit	F	11502	2	23313378	1	11667	1	0	next
disjunction	positive	1	X_blue	hit	J	5537	2	23350380	1	5667	1	0	next
disjunction	positive	30	T_blue	hit	J	4938	2	23381382	1	5000	1	0	next
disjunction	positive	1	T_blue	hit	J	4523	2	23411718	1	4667	1	0	next
disjunction	positive	30	S_brown	incorrect	F	6522	2	23441719	1	6667	1	0	next
disjunction	negative	15	Null	hit	F	10200	2	23473722	1	10334	1	0	next
disjunction	positive	5	T_blue	hit	J	5572	2	23509391	1	5667	1	0	next
disjunction	negative	15	Null	hit	F	9613	2	23540393	1	9667	1	0	next
disjunction	negative	15	Null	hit	F	9011	2	23575395	1	9167	1	0	next
disjunction	negative	15	Null	hit	F	9711	2	23609897	1	9834	1	0	next
disjunction	positive	30	S_brown	hit	J	10380	2	23645066	1	10501	1	0	next
disjunction	positive	30	X_blue	hit	J	4949	2	23680902	1	5000	1	0	next
disjunction	positive	1	S_brown	hit	J	5974	2	23711237	1	6167	1	0	next
disjunction	positive	30	X_blue	hit	J	7272	2	23742739	1	7334	1	0	next
disjunction	positive	30	S_brown	hit	J	7723	2	23775408	1	7834	1	0	next
disjunction	positive	30	X_blue	hit	J	5756	2	23808577	1	5834	1	0	next
conjunction	negative	5	Null	hit	F	8871	2	24074427	1	9001	1	0	next
conjunction	positive	30	T_green	hit	J	17417	2	24108763	1	17501	1	0	next
conjunction	positive	5	T_green	hit	J	11382	2	24151599	1	11501	1	0	next
conjunction	positive	5	T_green	hit	J	11028	2	24188435	1	11167	1	0	next
conjunction	negative	15	Null	hit	F	19165	2	24224937	1	19335	1	0	next
conjunction	negative	15	Null	hit	F	17378	2	24269606	1	17501	1	0	next
conjunction	positive	30	T_green	hit	J	15663	2	24312443	1	15834	1	0	next
conjunction	negative	30	Null	hit	F	17053	2	24353612	1	17168	1	0	next
conjunction	negative	15	Null	hit	F	14072	2	24396115	1	14168	1	0	next
conjunction	positive	15	T_green	hit	J	8972	2	24435617	1	9167	1	0	next
conjunction	negative	30	Null	hit	F	13512	2	24470120	1	13668	1	0	next
conjunction	positive	1	T_green	hit	J	5866	2	24509122	1	6000	1	0	next
conjunction	positive	1	T_green	hit	J	5574	2	24540457	1	5667	1	0	next
conjunction	positive	30	T_green	hit	J	15532	2	24571459	1	15668	1	0	next
conjunction	positive	30	T_green	hit	J	19490	2	24612462	1	19668	1	0	next
conjunction	negative	15	Null	hit	F	10970	2	24657465	1	11167	1	0	next
conjunction	negative	5	Null	hit	F	9668	2	24693967	1	9834	1	0	next
conjunction	negative	1	Null	hit	F	5220	2	24729136	1	5334	1	0	next
conjunction	positive	15	T_green	hit	J	11992	2	24759805	1	12167	1	0	next
conjunction	negative	5	Null	hit	F	13369	2	24797307	1	13501	1	0	next
conjunction	negative	1	Null	hit	F	5577	2	24836143	1	5667	1	0	next
conjunction	positive	1	T_green	hit	J	6894	2	24867145	1	7000	1	0	next
conjunction	negative	1	Null	hit	F	5280	2	24899481	1	5334	1	0	next
conjunction	positive	5	T_green	hit	J	7252	2	24930149	1	7334	1	0	next
conjunction	negative	1	Null	hit	F	6421	2	24962818	1	6500	1	0	next
conjunction	positive	5	T_green	hit	J	9147	2	24994654	1	9334	1	0	next
conjunction	positive	1	T_green	hit	J	6001	2	25029323	1	6167	1	0	next
conjunction	positive	15	T_green	hit	J	5541	2	25060825	1	5667	1	0	next
conjunction	negative	30	Null	hit	F	24784	2	25091827	1	24835	1	0	next
conjunction	positive	5	T_green	hit	J	10130	2	25141997	1	10167	1	0	next
conjunction	negative	15	Null	hit	F	18629	2	25177499	1	18835	1	0	next
conjunction	positive	5	T_green	hit	J	5661	2	25221668	1	5834	1	0	next
conjunction	negative	30	Null	hit	F	14973	2	25252837	1	15168	1	0	next
conjunction	negative	15	Null	hit	F	7269	2	25293340	1	7334	1	0	next
conjunction	positive	5	T_green	hit	J	8363	2	25326008	1	8501	1	0	next
conjunction	positive	1	T_green	hit	J	5410	2	25359844	1	5500	1	0	next
conjunction	positive	5	T_green	hit	J	7374	2	25390679	1	7500	1	0	next
conjunction	positive	5	T_green	hit	J	5099	2	25423515	1	5167	1	0	next
conjunction	positive	30	T_green	hit	J	10919	2	25454017	1	11001	1	0	next
conjunction	negative	15	Null	hit	F	11381	2	25490352	1	11501	1	0	next
conjunction	positive	30	T_green	hit	J	6709	2	25527188	1	6834	1	0	next
conjunction	negative	30	Null	hit	F	17901	2	25559357	1	18001	1	0	next
conjunction	positive	15	T_green	hit	J	24326	2	25602693	1	24502	1	0	next
conjunction	positive	1	T_green	hit	J	5051	2	25652530	1	5167	1	0	next
conjunction	positive	30	T_green	hit	J	10069	2	25683032	1	10167	1	0	next
conjunction	negative	1	Null	hit	F	6408	2	25718534	1	6500	1	0	next
conjunction	negative	5	Null	hit	F	8656	2	25750369	1	8834	1	0	next
conjunction	negative	1	Null	hit	F	7603	2	25784538	1	7667	1	0	next
conjunction	negative	30	Null	hit	F	14285	2	25817540	1	14334	1	0	next
conjunction	positive	5	T_green	incorrect	F	7096	2	25857210	1	7167	1	0	next
conjunction	negative	30	Null	hit	F	19713	2	25889712	1	19835	1	0	next
conjunction	positive	5	T_green	hit	J	9747	2	25934881	1	9834	1	0	next
conjunction	positive	15	T_green	hit	J	7697	2	25970050	1	7834	1	0	next
conjunction	positive	15	T_green	hit	J	6689	2	26003219	1	6834	1	0	next
conjunction	positive	30	T_green	hit	J	19483	2	26035388	1	19668	1	0	next
conjunction	negative	15	Null	hit	F	16561	2	26080391	1	16668	1	0	next
conjunction	positive	30	T_green	hit	J	19039	2	26122393	1	19168	1	0	next
conjunction	positive	1	T_green	hit	J	5257	2	26166896	1	5334	1	0	next
conjunction	positive	15	T_green	hit	J	15550	2	26197565	1	15668	1	0	next
conjunction	negative	30	Null	hit	F	17748	2	26238568	1	17835	1	0	next
conjunction	positive	5	T_green	hit	J	6897	2	26281737	1	7000	1	0	next
conjunction	negative	1	Null	hit	F	6085	2	26314072	1	6167	1	0	next
conjunction	negative	5	Null	hit	F	7544	2	26345575	1	7667	1	0	next
conjunction	negative	5	Null	hit	F	7823	2	26378577	1	8001	1	0	next
conjunction	positive	1	T_green	hit	J	6488	2	26411912	1	6667	1	0	next
conjunction	positive	5	T_green	hit	J	6805	2	26443914	1	7000	1	0	next
conjunction	positive	30	T_green	hit	J	15751	2	26476250	1	15834	1	0	next
conjunction	positive	30	T_green	incorrect	F	26422	2	26517419	1	26502	1	0	next
conjunction	positive	1	T_green	hit	J	7068	2	26569256	1	7167	1	0	next
conjunction	negative	15	Null	hit	F	16805	2	26601758	1	16834	1	0	next
conjunction	positive	1	T_green	hit	J	5678	2	26643927	1	5834	1	0	next
conjunction	negative	30	Null	hit	F	19632	2	26675096	1	19668	1	0	next
conjunction	positive	5	T_green	hit	J	7589	2	26720099	1	7667	1	0	next
conjunction	negative	30	Null	hit	F	15229	2	26753101	1	15334	1	0	next
conjunction	positive	5	T_green	hit	J	7038	2	26793770	1	7167	1	0	next
conjunction	negative	30	Null	hit	F	15016	2	26826272	1	15168	1	0	next
conjunction	positive	15	T_green	hit	J	18516	2	26866775	1	18668	1	0	next
conjunction	positive	1	T_green	hit	J	6834	2	26910778	1	7000	1	0	next
conjunction	negative	15	Null	hit	F	16581	2	26943113	1	16668	1	0	next
conjunction	negative	5	Null	hit	F	8340	2	26985116	1	8501	1	0	next
conjunction	positive	1	T_green	hit	J	5863	2	27018952	1	6000	1	0	next
conjunction	negative	5	Null	hit	F	34204	2	27050454	1	34336	1	0	next
conjunction	negative	30	Null	hit	F	234067	168	27109957	167	234150	167	0	next
conjunction	positive	15	T_green	hit	J	23956	2	27369348	1	23985	1	0	next
conjunction	positive	30	T_green	hit	J	12251	2	27418656	1	12334	1	0	next
conjunction	negative	15	Null	hit	F	18740	2	27456325	1	18834	1	0	next
conjunction	positive	1	T_green	hit	J	6253	2	27500494	1	6334	1	0	next
conjunction	positive	30	T_green	hit	J	15227	2	27532163	1	15334	1	0	next
conjunction	negative	15	Null	hit	F	10558	2	27572832	1	10667	1	0	next
conjunction	negative	1	Null	hit	F	7036	2	27608835	1	7167	1	0	next
conjunction	positive	30	T_green	hit	J	14055	2	27641337	1	14168	1	0	next
conjunction	negative	30	Null	hit	F	15513	2	27680839	1	15668	1	0	next
conjunction	negative	30	Null	hit	F	18835	2	27721842	1	19001	1	0	next
conjunction	negative	5	Null	hit	F	6177	2	27766178	1	6334	1	0	next
conjunction	negative	5	Null	hit	F	5712	2	27797847	1	5834	1	0	next
conjunction	negative	1	Null	hit	F	6542	2	27829015	1	6667	1	0	next
conjunction	negative	1	Null	hit	F	5420	2	27861018	1	5500	1	0	next
conjunction	negative	5	Null	hit	F	9627	2	27891853	1	9667	1	0	next
conjunction	positive	30	T_green	incorrect	F	13184	2	27926855	1	13334	1	0	next
conjunction	positive	15	T_green	hit	J	13877	2	27965524	1	14001	1	0	next
conjunction	negative	1	Null	hit	F	5422	2	28004860	1	5500	1	0	next
conjunction	positive	15	T_green	hit	J	16988	2	28035696	1	17168	1	0	next
conjunction	negative	1	Null	hit	F	5844	2	28078198	1	6000	1	0	next
conjunction	positive	30	T_green	hit	J	8909	2	28109534	1	9001	1	0	next
conjunction	negative	15	Null	hit	F	10256	2	28143869	1	10334	1	0	next
conjunction	negative	1	Null	hit	F	6108	2	28179538	1	6167	1	0	next
conjunction	negative	5	Null	hit	F	5809	2	28211040	1	6000	1	0	next
conjunction	positive	5	T_green	incorrect	F	5031	2	28242376	1	5167	1	0	next
conjunction	negative	1	Null	hit	F	6530	2	28272878	1	6667	1	0	next
conjunction	negative	15	Null	hit	F	12610	2	28304880	1	12667	1	0	next
conjunction	negative	15	Null	hit	F	8527	2	28342882	1	8667	1	0	next
conjunction	negative	15	Null	hit	F	12287	2	28376884	1	12334	1	0	next
conjunction	negative	1	Null	hit	F	7900	2	28414553	1	8000	1	0	next
conjunction	positive	1	T_green	hit	J	5603	2	28447889	1	5667	1	0	next
conjunction	negative	5	Null	hit	F	7882	2	28478891	1	8000	1	0	next
conjunction	positive	15	T_green	hit	J	11829	2	28512227	1	12001	1	0	next
conjunction	negative	5	Null	hit	F	16734	2	28549562	1	16834	1	0	next
conjunction	positive	1	T_green	hit	J	7045	2	28591732	1	7167	1	0	next
conjunction	positive	1	T_green	hit	J	6381	2	28624234	1	6500	1	0	next
conjunction	positive	15	T_green	hit	J	21270	2	28656069	1	21335	1	0	next
conjunction	negative	5	Null	hit	F	12201	2	28702739	1	12334	1	0	next
conjunction	positive	15	T_green	hit	J	11813	2	28740408	1	12001	1	0	next
conjunction	negative	30	Null	hit	F	16077	2	28777744	1	16168	1	0	next
conjunction	positive	15	T_green	hit	J	14577	2	28819246	1	14668	1	0	next
conjunction	negative	30	Null	hit	F	21615	2	28859249	1	21668	1	0	next
conjunction	negative	1	Null	hit	F	8692	2	28906252	1	8834	1	0	next
conjunction	positive	15	T_green	hit	J	7806	2	28940421	1	8001	1	0	next
conjunction	negative	5	Null	hit	F	14311	2	28973757	1	14501	1	0	next
