Target_Type	Trial_Type	Display_Size	Target	Response	Key_press	RT	Uncertainty	Time	Uncertainty	Duration	Uncertainty	ReqTime	ReqDur
disjunction	positive	1	T_blue	incorrect	F	118635	2	90355	1	118841	1	0	next
disjunction	negative	15	Null	hit	F	79261	2	234530	1	79338	1	0	next
disjunction	negative	30	Null	hit	F	62592	2	339204	1	62671	1	0	next
disjunction	positive	1	S_green	hit	J	59230	2	427210	1	59337	1	0	next
disjunction	positive	5	T_blue	hit	J	63517	2	511882	1	63671	1	0	next
disjunction	negative	15	Null	hit	F	48756	2	600887	1	48836	1	0	next
disjunction	negative	5	Null	hit	F	42746	2	675059	1	42836	1	0	next
disjunction	negative	1	Null	hit	F	24175	2	743230	1	24335	1	0	next
disjunction	negative	30	Null	hit	F	53388	2	792900	1	53503	1	0	next
disjunction	negative	1	Null	hit	F	46071	2	871738	1	46170	1	0	next
disjunction	negative	5	Null	hit	F	56487	2	943243	1	56670	1	0	next
disjunction	negative	30	Null	hit	F	53042	2	1025248	1	53170	1	0	next
disjunction	positive	30	S_green	hit	J	19502	2	1103753	1	19668	1	0	next
disjunction	negative	30	Null	hit	F	36737	2	1148756	1	36836	1	0	next
disjunction	positive	5	S_brown	hit	J	68011	2	1210927	1	68171	1	0	next
disjunction	positive	5	S_green	hit	J	33068	2	1304432	1	33169	1	0	next
disjunction	positive	30	S_brown	hit	J	8326	2	1362936	1	8501	1	0	next
disjunction	positive	1	T_blue	incorrect	F	12889	2	1396772	1	13001	1	0	next
disjunction	negative	15	Null	hit	F	39353	2	1435108	1	39503	1	0	next
disjunction	positive	5	X_blue	hit	J	21560	2	1499945	1	21668	1	0	next
disjunction	negative	1	Null	hit	F	11995	2	1546948	1	12167	1	0	next
disjunction	positive	5	X_blue	hit	J	16257	2	1584450	1	16334	1	0	next
disjunction	positive	1	T_blue	hit	J	19229	2	1626120	1	19335	1	0	next
disjunction	positive	15	S_green	hit	J	21599	2	1670789	1	21668	1	0	next
disjunction	negative	30	Null	hit	F	61955	2	1717792	1	62004	1	0	next
disjunction	negative	5	Null	hit	F	13818	2	1805131	1	14001	1	0	next
disjunction	positive	30	T_blue	hit	J	27126	2	1844467	1	27168	1	0	next
disjunction	positive	30	S_brown	hit	J	74466	2	1896971	1	74671	1	0	next
disjunction	negative	30	Null	hit	F	26621	2	1996977	1	26668	1	0	next
disjunction	negative	1	Null	hit	F	30621	2	2048980	1	30669	1	0	next
disjunction	negative	5	Null	hit	F	51738	2	2104984	1	51837	1	0	next
disjunction	negative	15	Null	hit	F	51207	2	2182156	1	51337	1	0	next
disjunction	positive	30	S_green	hit	J	13254	2	2258827	1	13334	1	0	next
disjunction	negative	1	Null	hit	F	10589	2	2297496	1	10667	1	0	next
disjunction	negative	5	Null	hit	F	14585	2	2333499	1	14668	1	0	next
disjunction	positive	5	S_green	hit	J	34907	2	2373501	1	35002	1	0	next
disjunction	negative	5	Null	hit	F	15687	2	2433838	1	15834	1	0	next
disjunction	positive	30	X_blue	hit	J	26045	2	2475008	1	26168	1	0	next
disjunction	negative	15	Null	hit	F	31818	2	2526511	1	32002	1	0	next
disjunction	positive	30	S_brown	hit	J	15285	2	2583848	1	15334	1	0	next
disjunction	positive	1	T_blue	incorrect	F	37333	2	2624517	1	37502	1	0	next
disjunction	positive	5	X_blue	hit	J	9380	2	2687355	1	9501	1	0	next
disjunction	positive	30	X_blue	hit	J	7184	2	2722190	1	7334	1	0	next
disjunction	positive	15	S_green	hit	J	37718	2	2754859	1	37836	1	0	next
disjunction	positive	1	X_blue	hit	J	9269	2	2818030	1	9334	1	0	next
disjunction	positive	1	X_blue	hit	J	6279	2	2852699	1	6334	1	0	next
disjunction	positive	5	X_blue	hit	J	6448	2	2884367	1	6500	1	0	next
disjunction	negative	15	Null	hit	F	22777	2	2916203	1	22835	1	0	next
disjunction	positive	1	S_green	hit	J	9006	2	2964372	1	9167	1	0	next
disjunction	positive	15	X_blue	hit	J	8108	2	2998875	1	8167	1	0	next
disjunction	negative	15	Null	hit	F	33328	2	3032377	1	33502	1	0	next
disjunction	positive	5	X_blue	hit	J	8248	2	3091214	1	8334	1	0	next
disjunction	negative	30	Null	hit	F	81785	2	3124883	1	81839	1	0	next
disjunction	positive	1	S_green	hit	J	22935	2	3232056	1	23001	1	0	next
disjunction	positive	15	S_brown	incorrect	F	49798	2	3280393	1	50003	1	0	next
disjunction	negative	30	Null	hit	F	21020	2	3355731	1	21168	1	0	next
disjunction	positive	30	X_blue	hit	J	10517	2	3402234	1	10667	1	0	next
disjunction	negative	5	Null	hit	F	31478	2	3438236	1	31669	1	0	next
disjunction	negative	15	Null	hit	F	47915	2	3495240	1	48003	1	0	next
disjunction	positive	5	S_green	hit	J	26417	2	3568578	1	26502	1	0	next
disjunction	positive	30	S_brown	hit	J	8661	2	3620414	1	8834	1	0	next
disjunction	positive	15	S_brown	hit	J	6332	2	3654583	1	6500	1	0	next
disjunction	negative	15	Null	hit	F	13538	2	3686419	1	13668	1	0	next
disjunction	negative	30	Null	hit	F	29736	2	3725421	1	29835	1	0	next
disjunction	positive	5	X_blue	hit	J	8491	2	3780591	1	8667	1	0	next
disjunction	negative	1	Null	hit	F	10650	2	3814594	1	10834	1	0	next
disjunction	positive	5	T_blue	hit	J	18802	2	3850763	1	19001	1	0	next
disjunction	negative	1	Null	hit	F	9183	2	3895099	1	9334	1	0	next
disjunction	negative	15	Null	hit	F	23319	2	3929768	1	23502	1	0	next
disjunction	negative	15	Null	hit	F	58163	2	3978604	1	58337	1	0	next
disjunction	positive	15	T_blue	hit	J	7616	2	4062276	1	7667	1	0	next
disjunction	positive	1	T_blue	hit	J	6451	2	4095278	1	6500	1	0	next
disjunction	negative	30	Null	hit	F	37498	2	4127114	1	37669	1	0	next
disjunction	negative	30	Null	hit	F	14975	2	4190118	1	15168	1	0	next
disjunction	positive	1	S_brown	hit	J	13030	2	4230620	1	13168	1	0	next
disjunction	positive	1	X_blue	hit	J	8773	2	4269123	1	8834	1	0	next
disjunction	negative	1	Null	hit	F	51085	2	4303292	1	51170	1	0	next
disjunction	positive	1	S_brown	hit	J	9942	2	4379797	1	10001	1	0	next
disjunction	negative	5	Null	hit	F	29963	2	4415132	1	30002	1	0	next
disjunction	positive	1	S_green	hit	J	38311	2	4470469	1	38502	1	0	next
disjunction	positive	1	S_green	hit	J	39274	2	4534307	1	39336	1	0	next
disjunction	positive	30	X_blue	hit	J	7725	2	4598977	1	7834	1	0	next
disjunction	positive	1	S_green	hit	J	49599	2	4632146	1	49670	1	0	next
disjunction	positive	5	T_blue	hit	J	15236	2	4707151	1	15334	1	0	next
disjunction	negative	30	Null	hit	F	28325	2	4747820	1	28502	1	0	next
disjunction	negative	5	Null	hit	F	11932	2	4801657	1	12001	1	0	next
disjunction	positive	30	S_brown	hit	J	15398	2	4838993	1	15501	1	0	next
disjunction	negative	1	Null	hit	F	49920	2	4879829	1	50003	1	0	next
disjunction	positive	5	X_blue	hit	J	9305	2	4955167	1	9501	1	0	next
disjunction	positive	30	X_blue	hit	J	6791	2	4990002	1	6834	1	0	next
disjunction	negative	5	Null	hit	F	13179	2	5022171	1	13334	1	0	next
disjunction	positive	5	S_green	hit	J	10035	2	5060840	1	10167	1	0	next
disjunction	negative	1	Null	incorrect	J	8292	2	5096343	1	8334	1	0	next
disjunction	positive	5	S_brown	hit	J	19266	2	5130011	1	19335	1	0	next
disjunction	positive	30	S_brown	hit	J	10277	2	5174681	1	10334	1	0	next
disjunction	positive	15	T_blue	hit	J	7568	2	5210350	1	7667	1	0	next
disjunction	positive	15	S_green	incorrect	F	16969	2	5243352	1	17168	1	0	next
disjunction	negative	1	Null	hit	F	16547	2	5285855	1	16668	1	0	next
disjunction	positive	30	T_blue	hit	J	7023	2	5327857	1	7167	1	0	next
disjunction	negative	30	Null	hit	F	21080	2	5360359	1	21168	1	0	next
disjunction	negative	30	Null	hit	F	14742	2	5406862	1	14834	1	0	next
disjunction	positive	15	S_green	hit	J	77292	2	5447032	1	77338	1	0	next
disjunction	negative	5	Null	hit	F	11585	2	5549705	1	11667	1	0	next
disjunction	positive	30	T_blue	hit	J	14261	2	5586707	1	14334	1	0	next
disjunction	positive	15	T_blue	hit	J	5952	2	5626377	1	6000	1	0	next
disjunction	positive	15	T_blue	hit	J	3737	2	5657712	1	3834	1	0	next
disjunction	negative	5	Null	hit	F	27051	2	5686880	1	27168	1	0	next
disjunction	negative	15	Null	hit	F	24309	2	5739384	1	24502	1	0	next
disjunction	negative	5	Null	hit	F	28230	2	5789220	1	28335	1	0	next
disjunction	negative	30	Null	hit	F	28162	2	5842890	1	28335	1	0	next
disjunction	positive	15	S_brown	hit	J	11455	2	5896561	1	11501	1	0	next
disjunction	negative	1	Null	hit	F	12061	2	5933396	1	12167	1	0	next
disjunction	positive	15	S_brown	hit	J	7838	2	5970899	1	8001	1	0	next
disjunction	negative	5	Null	hit	F	11144	2	6004234	1	11334	1	0	next
disjunction	negative	15	Null	hit	F	33515	2	6040903	1	33669	1	0	next
disjunction	negative	15	Null	hit	F	9073	2	6099907	1	9167	1	0	next
disjunction	negative	1	Null	hit	F	6570	2	6134409	1	6667	1	0	next
disjunction	negative	30	Null	hit	F	18248	2	6166411	1	18335	1	0	next
disjunction	negative	5	Null	hit	F	5626	2	6210081	1	5667	1	0	next
disjunction	positive	15	S_brown	hit	J	12379	2	6241083	1	12501	1	0	next
disjunction	negative	1	Null	hit	F	30386	2	6278918	1	30502	1	0	next
disjunction	positive	15	S_brown	hit	J	6394	2	6334755	1	6500	1	0	next
disjunction	positive	15	T_blue	hit	J	12317	2	6366591	1	12501	1	0	next
disjunction	negative	5	Null	hit	F	14162	2	6404426	1	14334	1	0	next
disjunction	negative	1	Null	hit	F	7296	2	6444096	1	7334	1	0	next
disjunction	negative	1	Null	hit	F	4385	2	6476764	1	4500	1	0	next
disjunction	negative	15	Null	hit	F	16310	2	6506600	1	16501	1	0	next
disjunction	negative	15	Null	hit	F	10955	2	6548436	1	11001	1	0	next
conjunction	positive	5	T_green	incorrect	F	107999	2	6614440	1	108174	1	0	next
conjunction	negative	1	Null	hit	F	46808	2	6747949	1	47003	1	0	next
conjunction	positive	30	T_green	incorrect	F	63592	2	6820287	1	63671	1	0	next
conjunction	negative	1	Null	hit	F	31068	2	6909292	1	31169	1	0	next
conjunction	negative	5	Null	hit	F	9444	2	6965796	1	9501	1	0	next
conjunction	positive	5	T_green	incorrect	F	17171	2	7000631	1	17334	1	0	next
conjunction	negative	1	Null	hit	F	12904	2	7043301	1	13001	1	0	next
conjunction	positive	1	T_green	incorrect	F	6406	2	7081637	1	6500	1	0	next
conjunction	positive	30	T_green	hit	J	36013	2	7113472	1	36169	1	0	next
conjunction	positive	30	T_green	hit	J	15312	2	7174976	1	15501	1	0	next
conjunction	negative	1	Null	hit	F	9514	2	7215812	1	9667	1	0	next
conjunction	positive	30	T_green	incorrect	F	40758	2	7250814	1	40836	1	0	next
conjunction	positive	1	T_green	hit	J	13303	2	7316985	1	13501	1	0	next
conjunction	negative	30	Null	hit	F	97831	2	7355821	1	98006	1	0	next
conjunction	negative	5	Null	hit	F	59774	2	7479162	1	59837	1	0	next
conjunction	negative	1	Null	hit	F	29163	2	7564334	1	29335	1	0	next
conjunction	positive	1	T_green	hit	J	26496	2	7619004	1	26668	1	0	next
conjunction	positive	1	T_green	hit	J	9850	2	7671008	1	10001	1	0	next
conjunction	positive	5	T_green	hit	J	10677	2	7706343	1	10834	1	0	next
conjunction	positive	30	T_green	hit	J	9708	2	7742512	1	9834	1	0	next
conjunction	positive	30	T_green	hit	J	9262	2	7777681	1	9334	1	0	next
conjunction	positive	15	T_green	hit	J	6916	2	7812350	1	7000	1	0	next
conjunction	negative	15	Null	hit	F	32660	2	7844686	1	32835	1	0	next
conjunction	negative	1	Null	hit	F	34010	2	7902856	1	34169	1	0	next
conjunction	negative	5	Null	hit	F	19307	2	7962360	1	19501	1	0	next
conjunction	positive	30	T_green	hit	J	8391	2	8007196	1	8501	1	0	next
conjunction	negative	1	Null	hit	F	62880	2	8041032	1	63004	1	0	next
conjunction	negative	30	Null	hit	F	55020	2	8129371	1	55170	1	0	next
conjunction	positive	1	T_green	hit	J	14196	2	8209876	1	14334	1	0	next
conjunction	positive	15	T_green	hit	J	10528	2	8249545	1	10667	1	0	next
conjunction	negative	5	Null	hit	F	54527	2	8285547	1	54670	1	0	next
conjunction	positive	15	T_green	hit	J	7807	2	8365552	1	8001	1	0	next
conjunction	positive	1	T_green	hit	J	7908	2	8398888	1	8001	1	0	next
conjunction	negative	30	Null	hit	F	34898	2	8432223	1	35002	1	0	next
conjunction	positive	30	T_green	hit	J	9280	2	8492561	1	9334	1	0	next
conjunction	positive	15	T_green	hit	J	12851	2	8527229	1	13001	1	0	next
conjunction	positive	15	T_green	hit	J	7160	2	8565565	1	7334	1	0	next
conjunction	positive	15	T_green	hit	J	22009	2	8598234	1	22168	1	0	next
conjunction	positive	30	T_green	hit	J	13067	2	8645737	1	13167	1	0	next
conjunction	positive	5	T_green	hit	J	7204	2	8684239	1	7334	1	0	next
conjunction	positive	15	T_green	hit	J	5421	2	8716908	1	5500	1	0	next
conjunction	negative	5	Null	hit	F	15062	2	8747744	1	15168	1	0	next
conjunction	negative	30	Null	hit	F	40321	2	8788246	1	40503	1	0	next
conjunction	positive	1	T_green	hit	J	6968	2	8854084	1	7167	1	0	next
conjunction	positive	30	T_green	hit	J	7907	2	8886586	1	8001	1	0	next
conjunction	positive	5	T_green	hit	J	11688	2	8919921	1	11834	1	0	next
conjunction	negative	30	Null	hit	F	36442	2	8957090	1	36502	1	0	next
conjunction	negative	1	Null	hit	F	13488	2	9018928	1	13668	1	0	next
conjunction	negative	15	Null	hit	F	14967	2	9057930	1	15168	1	0	next
conjunction	positive	5	T_green	hit	J	7581	2	9098433	1	7667	1	0	next
conjunction	negative	1	Null	hit	F	8020	2	9131435	1	8167	1	0	next
conjunction	positive	15	T_green	hit	J	7162	2	9164937	1	7334	1	0	next
conjunction	positive	5	T_green	hit	J	5055	2	9197606	1	5167	1	0	next
conjunction	positive	15	T_green	hit	J	8793	2	9228108	1	8834	1	0	next
conjunction	negative	5	Null	hit	F	16862	2	9262277	1	17001	1	0	next
conjunction	negative	30	Null	hit	F	37891	2	9304613	1	38002	1	0	next
conjunction	negative	5	Null	hit	F	9912	2	9367950	1	10001	1	0	next
conjunction	negative	15	Null	hit	F	16980	2	9403286	1	17168	1	0	next
conjunction	negative	5	Null	hit	F	8558	2	9445788	1	8667	1	0	next
conjunction	positive	1	T_green	hit	J	7194	2	9479791	1	7334	1	0	next
conjunction	positive	1	T_green	hit	J	3969	2	9512459	1	4000	1	0	next
conjunction	positive	5	T_green	hit	J	5994	2	9541795	1	6167	1	0	next
conjunction	positive	30	T_green	hit	J	17371	2	9573297	1	17501	1	0	next
conjunction	negative	5	Null	hit	F	15977	2	9616133	1	16168	1	0	next
conjunction	negative	15	Null	hit	F	35117	2	9657635	1	35169	1	0	next
conjunction	negative	5	Null	hit	F	9494	2	9718139	1	9667	1	0	next
conjunction	positive	1	T_green	incorrect	F	5850	2	9753141	1	6000	1	0	next
conjunction	positive	1	T_green	hit	J	10676	2	9784477	1	10834	1	0	next
conjunction	positive	15	T_green	hit	J	11150	2	9820646	1	11334	1	0	next
conjunction	negative	5	Null	hit	F	17679	2	9857315	1	17835	1	0	next
conjunction	positive	5	T_green	hit	J	6510	2	9900484	1	6667	1	0	next
conjunction	negative	15	Null	hit	F	22029	2	9932486	1	22168	1	0	next
conjunction	positive	5	T_green	hit	J	5408	2	9979989	1	5500	1	0	next
conjunction	positive	15	T_green	hit	J	9296	2	10010825	1	9334	1	0	next
conjunction	positive	15	T_green	hit	J	7104	2	10045494	1	7167	1	0	next
conjunction	negative	5	Null	hit	F	16365	2	10077996	1	16501	1	0	next
conjunction	positive	15	T_green	hit	J	6690	2	10119832	1	6834	1	0	next
conjunction	positive	5	T_green	hit	J	12283	2	10152000	1	12334	1	0	next
conjunction	positive	1	T_green	hit	J	6455	2	10189669	1	6500	1	0	next
conjunction	positive	30	T_green	hit	J	11742	2	10221505	1	11834	1	0	next
conjunction	positive	15	T_green	hit	J	11052	2	10258674	1	11167	1	0	next
conjunction	positive	1	T_green	hit	J	5752	2	10295176	1	5834	1	0	next
conjunction	positive	1	T_green	hit	J	4341	2	10326345	1	4500	1	0	next
conjunction	negative	15	Null	hit	F	12589	2	10356180	1	12667	1	0	next
conjunction	negative	1	Null	hit	F	16505	2	10394183	1	16668	1	0	next
conjunction	positive	15	T_green	hit	J	6504	2	10436185	1	6667	1	0	next
conjunction	negative	15	Null	hit	F	14508	2	10468187	1	14668	1	0	next
conjunction	positive	1	T_green	hit	J	11622	2	10508190	1	11667	1	0	next
conjunction	positive	30	T_green	hit	J	13662	2	10545192	1	13834	1	0	next
conjunction	negative	30	Null	hit	F	20253	2	10584361	1	20335	1	0	next
conjunction	negative	30	Null	hit	F	20183	2	10630031	1	20335	1	0	next
conjunction	negative	5	Null	hit	F	13397	2	10675701	1	13501	1	0	next
conjunction	negative	15	Null	hit	F	9441	2	10714536	1	9501	1	0	next
conjunction	positive	5	T_green	hit	J	6607	2	10749372	1	6667	1	0	next
conjunction	positive	5	T_green	hit	J	7085	2	10781374	1	7167	1	0	next
conjunction	negative	5	Null	hit	F	16182	2	10813876	1	16334	1	0	next
conjunction	positive	15	T_green	hit	J	11156	2	10855546	1	11334	1	0	next
conjunction	negative	5	Null	hit	F	22489	2	10892215	1	22668	1	0	next
conjunction	negative	15	Null	hit	F	13044	2	10940218	1	13168	1	0	next
conjunction	positive	5	T_green	hit	J	8945	2	10978720	1	9001	1	0	next
conjunction	positive	30	T_green	hit	J	8207	2	11013056	1	8334	1	0	next
conjunction	negative	15	Null	hit	F	16623	2	11046724	1	16668	1	0	next
conjunction	positive	30	T_green	hit	J	10304	2	11088727	1	10501	1	0	next
conjunction	positive	5	T_green	hit	J	6625	2	11124563	1	6667	1	0	next
conjunction	positive	1	T_green	hit	J	4547	2	11156565	1	4667	1	0	next
conjunction	negative	5	Null	hit	F	8623	2	11186567	1	8667	1	0	next
conjunction	negative	15	Null	hit	F	22143	2	11220569	1	22335	1	0	next
conjunction	positive	30	T_green	hit	J	6950	2	11268239	1	7000	1	0	next
conjunction	positive	5	T_green	hit	J	11259	2	11300574	1	11334	1	0	next
conjunction	negative	30	Null	hit	F	34909	2	11337243	1	35002	1	0	next
conjunction	negative	15	Null	hit	F	11532	2	11397580	1	11667	1	0	next
conjunction	negative	15	Null	hit	F	18534	2	11434583	1	18668	1	0	next
conjunction	negative	1	Null	hit	F	10211	2	11478586	1	10334	1	0	next
conjunction	negative	15	Null	hit	F	21105	2	11514254	1	21168	1	0	next
conjunction	negative	15	Null	hit	F	16999	2	11560757	1	17168	1	0	next
conjunction	negative	1	Null	hit	F	7302	2	11603260	1	7501	1	0	next
conjunction	negative	15	Null	hit	F	13344	2	11636096	1	13501	1	0	next
conjunction	negative	30	Null	hit	F	25709	2	11674931	1	25835	1	0	next
conjunction	negative	30	Null	hit	F	20780	2	11726101	1	20835	1	0	next
conjunction	negative	1	Null	hit	F	8691	2	11772271	1	8834	1	0	next
conjunction	negative	30	Null	hit	F	21727	2	11806440	1	21835	1	0	next
conjunction	negative	1	Null	hit	F	25756	2	11853610	1	25835	1	0	next
conjunction	negative	30	Null	hit	F	18906	2	11904780	1	19001	1	0	next
conjunction	negative	1	Null	hit	F	9134	2	11949116	1	9167	1	0	next
conjunction	negative	30	Null	hit	F	26153	2	11983618	1	26335	1	0	next
conjunction	negative	1	Null	hit	F	42002	2	12035288	1	42169	1	0	next
conjunction	negative	30	Null	hit	F	40902	2	12102792	1	41003	1	0	next
conjunction	negative	30	Null	hit	F	19682	2	12169130	1	19835	1	0	next
conjunction	positive	30	T_green	hit	J	13707	2	12254469	1	13834	1	0	next
conjunction	positive	5	T_green	hit	J	14061	2	12293638	1	14168	1	0	next
conjunction	negative	15	Null	hit	F	34401	2	12333140	1	34502	1	0	next
conjunction	positive	1	T_green	hit	J	7520	2	12392978	1	7667	1	0	next
conjunction	positive	1	T_green	hit	J	4445	2	12425980	1	4500	1	0	next
conjunction	negative	1	Null	hit	F	11248	2	12455815	1	11334	1	0	next
conjunction	negative	15	Null	hit	F	56338	2	12492484	1	56504	1	0	next
conjunction	negative	30	Null	hit	F	13700	2	12574323	1	13834	1	0	next
conjunction	negative	15	Null	hit	F	25899	2	12613492	1	26002	1	0	next
conjunction	positive	1	T_green	hit	J	15038	2	12664828	1	15168	1	0	next
conjunction	positive	15	T_green	hit	J	18698	2	12705331	1	18835	1	0	next
conjunction	positive	30	T_green	hit	J	21727	2	12749500	1	21835	1	0	next
conjunction	negative	15	Null	hit	F	19839	2	12796670	1	20001	1	0	next
conjunction	negative	1	Null	hit	F	10503	2	12842006	1	10667	1	0	next
conjunction	negative	15	Null	hit	F	33068	2	12878009	1	33169	1	0	next
conjunction	negative	30	Null	hit	F	25604	2	12936512	1	25668	1	0	next
conjunction	positive	15	T_green	incorrect	F	9800	2	12987516	1	9834	1	0	next
conjunction	negative	15	Null	hit	F	19113	2	13022685	1	19168	1	0	next
conjunction	negative	1	Null	hit	F	6930	2	13067188	1	7000	1	0	next
conjunction	negative	30	Null	hit	F	22597	2	13099523	1	22668	1	0	next
conjunction	negative	1	Null	hit	F	6755	2	13147526	1	6834	1	0	next
conjunction	negative	15	Null	hit	F	24345	2	13179695	1	24502	1	0	next
conjunction	negative	1	Null	hit	F	11152	2	13229531	1	11334	1	0	next
conjunction	positive	30	T_green	incorrect	F	30161	2	13266200	1	30335	1	0	next
conjunction	positive	5	T_green	hit	J	5534	2	13321871	1	5667	1	0	next
conjunction	positive	30	T_green	hit	J	7492	2	13352873	1	7667	1	0	next
conjunction	negative	1	Null	hit	F	9689	2	13385875	1	9834	1	0	next
conjunction	negative	15	Null	hit	F	17245	2	13421044	1	17334	1	0	next
conjunction	negative	5	Null	hit	F	8973	2	13463713	1	9167	1	0	next
conjunction	negative	5	Null	hit	F	8550	2	13498215	1	8667	1	0	next
conjunction	negative	15	Null	hit	F	16311	2	13532217	1	16501	1	0	next
conjunction	negative	30	Null	hit	F	29195	2	13574053	1	29335	1	0	next
conjunction	positive	1	T_green	hit	J	6846	2	13628724	1	7000	1	0	next
conjunction	positive	1	T_green	hit	J	5232	2	13661059	1	5334	1	0	next
conjunction	negative	5	Null	hit	F	9766	2	13691728	1	9834	1	0	next
conjunction	negative	5	Null	hit	F	12195	2	13726897	1	12334	1	0	next
conjunction	positive	30	T_green	incorrect	F	26527	2	13764566	1	26668	1	0	next
conjunction	negative	15	Null	hit	F	24767	2	13816569	1	24835	1	0	next
conjunction	negative	15	Null	hit	F	13481	2	13866739	1	13668	1	0	next
conjunction	negative	5	Null	hit	F	18643	2	13905741	1	18835	1	0	next
conjunction	negative	15	Null	hit	F	13669	2	13949911	1	13834	1	0	next
conjunction	negative	30	Null	hit	F	12102	2	13989080	1	12167	1	0	next
conjunction	positive	5	T_green	hit	J	16357	2	14026582	1	16501	1	0	next
conjunction	positive	15	T_green	incorrect	F	21249	2	14068418	1	21335	1	0	next
conjunction	negative	15	Null	hit	F	13455	2	14115088	1	13501	1	0	next
conjunction	negative	5	Null	hit	F	12859	2	14153924	1	13001	1	0	next
conjunction	negative	30	Null	hit	F	31488	2	14192260	1	31669	1	0	next
conjunction	positive	1	T_green	hit	J	6161	2	14249263	1	6334	1	0	next
conjunction	positive	30	T_green	hit	J	9855	2	14280932	1	10001	1	0	next
conjunction	positive	1	T_green	hit	J	4765	2	14316268	1	4834	1	0	next
conjunction	positive	5	T_green	hit	J	5635	2	14346436	1	5834	1	0	next
conjunction	negative	15	Null	hit	F	24386	2	14377605	1	24502	1	0	next
conjunction	positive	15	T_green	hit	J	8152	2	14427441	1	8334	1	0	next
conjunction	positive	30	T_green	incorrect	F	30643	2	14461110	1	30835	1	0	next
conjunction	negative	30	Null	hit	F	35116	2	14517281	1	35169	1	0	next
conjunction	negative	15	Null	hit	F	12690	2	14577784	1	12834	1	0	next
conjunction	positive	5	T_green	hit	J	7163	2	14615954	1	7334	1	0	next
conjunction	positive	1	T_green	hit	J	4093	2	14648622	1	4167	1	0	next
conjunction	negative	30	Null	hit	F	38274	2	14678124	1	38336	1	0	next
conjunction	positive	15	T_green	hit	J	4522	2	14741795	1	4667	1	0	next
conjunction	negative	15	Null	hit	F	17405	2	14771797	1	17501	1	0	next
conjunction	negative	1	Null	hit	F	5769	2	14814633	1	5834	1	0	next
conjunction	negative	5	Null	hit	F	7885	2	14845802	1	8000	1	0	next
conjunction	positive	15	T_green	hit	J	7184	2	14879137	1	7334	1	0	next
conjunction	negative	5	Null	hit	F	7156	2	14911806	1	7334	1	0	next
conjunction	positive	30	T_green	hit	J	27131	2	14944475	1	27168	1	0	next
conjunction	negative	1	Null	hit	F	6467	2	14996978	1	6500	1	0	next
conjunction	positive	5	T_green	hit	J	5672	2	15028813	1	5834	1	0	next
conjunction	negative	1	Null	hit	F	7629	2	15059982	1	7667	1	0	next
conjunction	positive	5	T_green	incorrect	F	7108	2	15092984	1	7167	1	0	next
conjunction	positive	5	T_green	hit	J	5163	2	15125486	1	5334	1	0	next
conjunction	negative	30	Null	hit	F	30653	2	15156155	1	30835	1	0	next
conjunction	positive	5	T_green	hit	J	8245	2	15212325	1	8334	1	0	next
conjunction	positive	15	T_green	hit	J	11060	2	15245994	1	11167	1	0	next
conjunction	negative	1	Null	hit	F	7836	2	15282496	1	8001	1	0	next
conjunction	negative	30	Null	hit	F	26181	2	15315832	1	26335	1	0	next
conjunction	negative	30	Null	hit	F	38032	2	15367502	1	38169	1	0	next
conjunction	negative	30	Null	hit	F	21090	2	15431006	1	21168	1	0	next
conjunction	positive	1	T_green	hit	J	5788	2	15477509	1	5834	1	0	next
conjunction	positive	15	T_green	hit	J	10301	2	15508678	1	10334	1	0	next
conjunction	negative	1	Null	hit	F	6792	2	15544346	1	6834	1	0	next
conjunction	negative	1	Null	hit	F	6947	2	15576515	1	7000	1	0	next
conjunction	positive	5	T_green	hit	J	6772	2	15608851	1	6834	1	0	next
conjunction	negative	5	Null	hit	F	9489	2	15641019	1	9667	1	0	next
conjunction	negative	1	Null	hit	F	6804	2	15676022	1	6834	1	0	next
conjunction	positive	15	T_green	hit	J	6953	2	15708190	1	7000	1	0	next
conjunction	negative	1	Null	hit	F	5338	2	15740526	1	5500	1	0	next
conjunction	positive	15	T_green	incorrect	F	4584	2	15771361	1	4667	1	0	next
conjunction	positive	15	T_green	hit	J	5621	2	15801363	1	5667	1	0	next
conjunction	negative	5	Null	hit	F	23421	2	15832365	1	23502	1	0	next
conjunction	positive	5	T_green	hit	J	6748	2	15881202	1	6834	1	0	next
conjunction	negative	30	Null	hit	F	30901	2	15913370	1	31002	1	0	next
conjunction	negative	30	Null	hit	F	26726	2	15969707	1	26835	1	0	next
conjunction	positive	1	T_green	hit	J	5433	2	16021877	1	5500	1	0	next
conjunction	negative	1	Null	hit	F	26123	2	16052712	1	26168	1	0	next
conjunction	positive	5	T_green	hit	J	8856	2	16104216	1	9001	1	0	next
conjunction	negative	1	Null	hit	F	7481	2	16138551	1	7667	1	0	next
conjunction	positive	30	T_green	hit	J	11443	2	16171553	1	11501	1	0	next
conjunction	negative	30	Null	hit	F	33166	2	16208389	1	33335	1	0	next
conjunction	positive	1	T_green	hit	J	42821	2	16267060	1	43003	1	0	next
conjunction	positive	30	T_green	incorrect	F	31123	2	16335397	1	31169	1	0	next
conjunction	positive	5	T_green	hit	J	7904	2	16391901	1	8001	1	0	next
conjunction	negative	30	Null	hit	F	20166	2	16425236	1	20335	1	0	next
conjunction	negative	5	Null	hit	F	21856	2	16470906	1	22001	1	0	next
conjunction	negative	5	Null	hit	F	7323	2	16518242	1	7500	1	0	next
conjunction	positive	30	T_green	incorrect	F	20572	2	16551078	1	20668	1	0	next
conjunction	negative	5	Null	hit	F	10729	2	16597081	1	10834	1	0	next
conjunction	positive	30	T_green	hit	J	19837	2	16633250	1	20001	1	0	next
conjunction	positive	15	T_green	hit	J	6504	2	16678586	1	6667	1	0	next
conjunction	positive	1	T_green	hit	J	5219	2	16710588	1	5334	1	0	next
conjunction	negative	5	Null	hit	F	39677	2	16741257	1	39836	1	0	next
conjunction	positive	15	T_green	hit	J	9064	2	16806427	1	9167	1	0	next
conjunction	positive	1	T_green	hit	J	7047	2	16840930	1	7167	1	0	next
conjunction	positive	30	T_green	hit	J	14543	2	16873432	1	14668	1	0	next
conjunction	positive	15	T_green	hit	J	13424	2	16913434	1	13501	1	0	next
conjunction	positive	5	T_green	hit	J	7066	2	16952270	1	7167	1	0	next
conjunction	negative	5	Null	hit	F	18405	2	16984772	1	18501	1	0	next
conjunction	negative	5	Null	hit	F	7209	2	17028608	1	7334	1	0	next
conjunction	positive	1	T_green	hit	J	8300	2	17061277	1	8334	1	0	next
conjunction	positive	5	T_green	hit	J	5352	2	17094946	1	5500	1	0	next
conjunction	positive	15	T_green	hit	J	12597	2	17125781	1	12667	1	0	next
conjunction	positive	5	T_green	hit	J	5638	2	17163784	1	5667	1	0	next
conjunction	positive	15	T_green	hit	J	12878	2	17194786	1	13001	1	0	next
conjunction	positive	30	T_green	hit	J	21740	2	17233122	1	21835	1	0	next
conjunction	positive	1	T_green	hit	J	4815	2	17280291	1	5000	1	0	next
conjunction	positive	30	T_green	hit	J	4559	2	17310627	1	4667	1	0	next
conjunction	positive	30	T_green	hit	J	4320	2	17340628	1	4500	1	0	next
conjunction	positive	1	T_green	hit	J	4084	2	17370464	1	4167	1	0	next
disjunction	negative	1	Null	hit	F	11274	2	17882163	1	11334	1	0	next
disjunction	positive	5	S_green	hit	J	28371	2	17918832	1	28502	1	0	next
disjunction	negative	5	Null	hit	F	46531	2	17972669	1	46670	1	0	next
disjunction	positive	15	X_blue	hit	J	29891	2	18044674	1	30002	1	0	next
disjunction	positive	30	S_brown	hit	J	25434	2	18100011	1	25502	1	0	next
disjunction	positive	30	S_brown	hit	J	20037	2	18150847	1	20168	1	0	next
disjunction	positive	30	X_blue	hit	J	7817	2	18196350	1	8000	1	0	next
disjunction	positive	5	T_blue	hit	J	7924	2	18229686	1	8001	1	0	next
disjunction	negative	5	Null	hit	F	10110	2	18263021	1	10167	1	0	next
disjunction	negative	30	Null	hit	F	30286	2	18298523	1	30335	1	0	next
disjunction	negative	30	Null	hit	F	20536	2	18354194	1	20668	1	0	next
disjunction	positive	15	S_brown	hit	J	14537	2	18400197	1	14668	1	0	next
disjunction	negative	15	Null	hit	F	9416	2	18440199	1	9501	1	0	next
disjunction	negative	5	Null	hit	F	6740	2	18475035	1	6834	1	0	next
disjunction	negative	5	Null	hit	F	9133	2	18507203	1	9334	1	0	next
disjunction	positive	1	S_green	hit	J	5823	2	18541872	1	6000	1	0	next
disjunction	positive	5	T_blue	hit	J	5527	2	18573208	1	5667	1	0	next
disjunction	negative	1	Null	hit	F	10525	2	18604210	1	10667	1	0	next
disjunction	negative	1	Null	hit	F	7006	2	18640212	1	7167	1	0	next
disjunction	positive	30	X_blue	hit	J	6825	2	18672714	1	7000	1	0	next
disjunction	negative	30	Null	hit	F	55292	2	18705049	1	55337	1	0	next
disjunction	negative	5	Null	hit	F	8859	2	18785721	1	9001	1	0	next
disjunction	negative	5	Null	hit	F	7647	2	18820057	1	7834	1	0	next
disjunction	positive	1	S_brown	hit	J	7600	2	18853226	1	7667	1	0	next
disjunction	positive	30	T_blue	hit	J	9956	2	18886228	1	10001	1	0	next
disjunction	positive	15	S_green	hit	J	11263	2	18921563	1	11334	1	0	next
disjunction	negative	1	Null	hit	F	7715	2	18958232	1	7834	1	0	next
disjunction	positive	5	X_blue	hit	J	7504	2	18991401	1	7667	1	0	next
disjunction	positive	1	T_blue	hit	J	6982	2	19024403	1	7167	1	0	next
disjunction	negative	5	Null	hit	F	18163	2	19056905	1	18335	1	0	next
disjunction	negative	15	Null	hit	F	26978	2	19100575	1	27168	1	0	next
disjunction	negative	1	Null	hit	F	24871	2	19153078	1	25002	1	0	next
disjunction	negative	5	Null	hit	F	10857	2	19203415	1	11001	1	0	next
disjunction	negative	30	Null	hit	F	14843	2	19239750	1	15001	1	0	next
disjunction	negative	15	Null	hit	F	4749	2	19280086	1	4834	1	0	next
disjunction	negative	1	Null	hit	F	6899	2	19310255	1	7000	1	0	next
disjunction	positive	15	T_blue	hit	J	8648	2	19342590	1	8834	1	0	next
disjunction	positive	15	S_brown	hit	J	13836	2	19376759	1	14001	1	0	next
disjunction	positive	1	T_blue	hit	J	4901	2	19416095	1	5000	1	0	next
disjunction	negative	15	Null	hit	F	13770	2	19446430	1	13834	1	0	next
disjunction	negative	1	Null	hit	F	6922	2	19485599	1	7000	1	0	next
disjunction	positive	15	T_blue	hit	J	10107	2	19517935	1	10167	1	0	next
disjunction	positive	15	X_blue	hit	J	18766	2	19553437	1	18835	1	0	next
disjunction	positive	15	T_blue	hit	J	7558	2	19597607	1	7667	1	0	next
disjunction	negative	30	Null	hit	F	19353	2	19630609	1	19501	1	0	next
disjunction	positive	5	S_brown	hit	J	13560	2	19675445	1	13668	1	0	next
disjunction	negative	5	Null	hit	F	11196	2	19714447	1	11334	1	0	next
disjunction	positive	1	S_green	hit	J	6369	2	19751117	1	6500	1	0	next
disjunction	negative	1	Null	hit	F	17736	2	19782952	1	17835	1	0	next
disjunction	positive	30	S_green	hit	J	8328	2	19826121	1	8501	1	0	next
disjunction	negative	1	Null	hit	F	7613	2	19859957	1	7667	1	0	next
disjunction	negative	30	Null	hit	F	20213	2	19892959	1	20335	1	0	next
disjunction	negative	30	Null	hit	F	13580	2	19938629	1	13668	1	0	next
disjunction	negative	5	Null	hit	F	7223	2	19977631	1	7334	1	0	next
disjunction	positive	30	S_green	hit	J	8793	2	20010300	1	8834	1	0	next
disjunction	positive	1	S_brown	hit	J	21184	2	20044469	1	21335	1	0	next
disjunction	positive	5	T_blue	hit	J	6195	2	20091138	1	6334	1	0	next
disjunction	negative	1	Null	hit	F	27329	2	20122807	1	27502	1	0	next
disjunction	positive	5	X_blue	hit	J	6495	2	20175644	1	6667	1	0	next
disjunction	positive	1	S_brown	hit	J	6493	2	20207646	1	6667	1	0	next
disjunction	negative	30	Null	hit	F	20572	2	20239648	1	20668	1	0	next
disjunction	positive	5	S_brown	hit	J	8488	2	20285651	1	8667	1	0	next
disjunction	positive	5	S_brown	hit	J	11767	2	20319653	1	11834	1	0	next
disjunction	negative	30	Null	hit	F	28680	2	20356822	1	28835	1	0	next
disjunction	negative	15	Null	hit	F	16274	2	20410992	1	16334	1	0	next
disjunction	negative	5	Null	hit	F	7404	2	20452662	1	7501	1	0	next
disjunction	positive	15	T_blue	hit	J	12648	2	20485497	1	12834	1	0	next
disjunction	negative	30	Null	hit	F	31601	2	20523666	1	31669	1	0	next
disjunction	positive	30	T_blue	hit	J	6918	2	20580670	1	7000	1	0	next
disjunction	positive	5	S_brown	hit	J	6904	2	20613005	1	7000	1	0	next
disjunction	negative	30	Null	hit	F	39689	2	20645341	1	39836	1	0	next
disjunction	negative	1	Null	hit	F	9560	2	20710511	1	9667	1	0	next
disjunction	negative	15	Null	hit	F	21599	2	20745514	1	21668	1	0	next
disjunction	negative	30	Null	hit	F	20035	2	20792517	1	20168	1	0	next
disjunction	positive	5	X_blue	hit	J	7013	2	20838020	1	7167	1	0	next
disjunction	positive	30	S_brown	hit	J	9238	2	20870522	1	9334	1	0	next
disjunction	negative	1	Null	hit	F	9127	2	20905191	1	9167	1	0	next
disjunction	negative	30	Null	hit	F	14782	2	20939693	1	14834	1	0	next
disjunction	positive	5	S_brown	hit	J	5975	2	20979862	1	6167	1	0	next
disjunction	negative	5	Null	incorrect	J	13833	2	21011364	1	14001	1	0	next
disjunction	positive	15	T_blue	hit	J	8260	2	21050700	1	8334	1	0	next
disjunction	positive	5	S_green	hit	J	11872	2	21084369	1	12001	1	0	next
disjunction	positive	1	X_blue	hit	J	777	2	21121704	1	833	1	0	next
disjunction	negative	15	Null	hit	F	9811	2	21147873	1	10001	1	0	next
disjunction	positive	1	S_brown	hit	J	33995	2	21183208	1	34169	1	0	next
disjunction	positive	15	X_blue	hit	J	6974	2	21242712	1	7167	1	0	next
disjunction	negative	5	Null	hit	F	7752	2	21275214	1	7834	1	0	next
disjunction	negative	15	Null	hit	F	17144	2	21308383	1	17335	1	0	next
disjunction	negative	15	Null	hit	F	14157	2	21351053	1	14334	1	0	next
disjunction	negative	1	Null	hit	F	9524	2	21390722	1	9667	1	0	next
disjunction	positive	5	S_brown	hit	J	11487	2	21425724	1	11667	1	0	next
disjunction	positive	15	S_brown	hit	J	21681	2	21462726	1	21835	1	0	next
disjunction	negative	1	Null	hit	F	6354	2	21509896	1	6500	1	0	next
disjunction	negative	5	Null	hit	F	11960	2	21541731	1	12001	1	0	next
disjunction	positive	5	T_blue	hit	J	8225	2	21579067	1	8334	1	0	next
disjunction	negative	15	Null	hit	F	16319	2	21612736	1	16501	1	0	next
disjunction	negative	15	Null	hit	F	11762	2	21654572	1	11834	1	0	next
disjunction	positive	15	S_green	hit	J	46597	2	21691741	1	46670	1	0	next
disjunction	negative	1	Null	hit	F	9629	2	21763746	1	9667	1	0	next
disjunction	negative	5	Null	hit	F	9349	2	21798748	1	9501	1	0	next
disjunction	negative	1	Null	hit	F	1874	2	21833583	1	2000	1	0	next
disjunction	negative	30	Null	hit	F	13423	2	21860919	1	13501	1	0	next
disjunction	negative	5	Null	hit	F	10107	2	21899754	1	10167	1	0	next
disjunction	negative	15	Null	hit	F	8046	2	21935257	1	8167	1	0	next
disjunction	negative	15	Null	hit	F	14226	2	21968759	1	14334	1	0	next
disjunction	positive	30	S_green	incorrect	F	2716	2	22008428	1	2833	1	0	next
disjunction	positive	30	X_blue	hit	J	7186	2	22036597	1	7334	1	0	next
disjunction	positive	30	T_blue	hit	J	5562	2	22069265	1	5667	1	0	next
disjunction	negative	30	Null	incorrect	J	24637	2	22100267	1	24668	1	0	next
disjunction	negative	30	Null	hit	F	27919	2	22150270	1	28002	1	0	next
disjunction	negative	15	Null	hit	F	18900	2	22203607	1	19001	1	0	next
disjunction	negative	15	Null	hit	F	15207	2	22247943	1	15334	1	0	next
disjunction	positive	15	X_blue	hit	J	4938	2	22288613	1	5000	1	0	next
disjunction	negative	15	Null	hit	F	11406	2	22318948	1	11501	1	0	next
disjunction	positive	5	S_green	incorrect	F	4811	2	22355784	1	5000	1	0	next
disjunction	positive	30	T_blue	hit	J	6792	2	22386119	1	6834	1	0	next
disjunction	positive	15	T_blue	hit	J	6628	2	22418288	1	6667	1	0	next
disjunction	positive	30	S_green	incorrect	F	41828	2	22450290	1	42003	1	0	next
disjunction	positive	1	X_blue	hit	J	5848	2	22517627	1	6000	1	0	next
disjunction	positive	1	S_green	hit	J	11634	2	22548963	1	11667	1	0	next
disjunction	positive	1	X_blue	hit	J	6476	2	22585965	1	6667	1	0	next
disjunction	positive	30	X_blue	hit	J	5191	2	22617967	1	5334	1	0	next
disjunction	positive	15	X_blue	hit	J	4445	2	22648636	1	4500	1	0	next
disjunction	positive	30	S_green	hit	J	8688	2	22678471	1	8834	1	0	next
disjunction	positive	1	S_green	hit	J	7004	2	22712640	1	7167	1	0	next
disjunction	positive	1	S_green	hit	J	6982	2	22745142	1	7167	1	0	next
disjunction	positive	1	S_green	hit	J	4239	2	22777644	1	4334	1	0	next
disjunction	positive	1	X_blue	hit	J	6570	2	22807313	1	6667	1	0	next
disjunction	negative	15	Null	hit	F	49579	2	22856149	1	49670	1	0	next
disjunction	positive	5	X_blue	hit	J	7692	2	22931154	1	7834	1	0	next
disjunction	positive	1	T_blue	hit	J	7807	2	22964323	1	8001	1	0	next
disjunction	negative	15	Null	hit	F	23269	2	22997658	1	23335	1	0	next
disjunction	negative	30	Null	hit	F	29162	2	23046328	1	29335	1	0	next
disjunction	negative	1	Null	hit	F	16095	2	23100998	1	16168	1	0	next
disjunction	negative	15	Null	hit	F	14275	2	23142501	1	14334	1	0	next
disjunction	positive	15	S_green	hit	J	17806	2	23182170	1	18001	1	0	next
disjunction	positive	15	S_green	hit	J	7590	2	23225506	1	7667	1	0	next
disjunction	negative	30	Null	hit	F	17470	2	23258508	1	17501	1	0	next
disjunction	positive	5	S_green	hit	J	8074	2	23301344	1	8167	1	0	next
disjunction	positive	30	T_blue	hit	J	14093	2	23334847	1	14168	1	0	next
disjunction	positive	5	X_blue	hit	J	5629	2	23374349	1	5667	1	0	next
disjunction	negative	30	Null	hit	F	39589	2	23405351	1	39669	1	0	next
disjunction	negative	5	Null	hit	F	8023	2	23470355	1	8167	1	0	next
disjunction	negative	5	Null	hit	F	10522	2	23503857	1	10667	1	0	next
disjunction	positive	5	T_blue	hit	J	6521	2	23539860	1	6667	1	0	next
disjunction	positive	1	S_brown	incorrect	F	16763	2	23571862	1	16834	1	0	next
disjunction	positive	1	X_blue	hit	J	5314	2	23614031	1	5500	1	0	next
disjunction	positive	1	T_blue	hit	J	4880	2	23644866	1	5000	1	0	next
disjunction	negative	5	Null	hit	F	11664	2	23675202	1	11834	1	0	next
disjunction	positive	5	X_blue	hit	J	6496	2	23712371	1	6667	1	0	next
disjunction	negative	30	Null	hit	F	9533	2	23744373	1	9667	1	0	next
disjunction	negative	1	Null	hit	F	8455	2	23779375	1	8501	1	0	next
disjunction	negative	30	Null	hit	F	6297	2	23813211	1	6334	1	0	next
disjunction	positive	5	S_green	incorrect	F	2152	2	23844879	1	2333	1	0	next
disjunction	negative	5	Null	hit	F	7924	2	23872548	1	8001	1	0	next
disjunction	positive	15	X_blue	incorrect	F	349	2	23905883	1	500	1	0	next
disjunction	positive	5	S_green	incorrect	F	11636	2	23931718	1	11667	1	0	next
disjunction	negative	30	Null	hit	F	29513	2	23968721	1	29669	1	0	next
disjunction	negative	1	Null	hit	F	11953	2	24023724	1	12001	1	0	next
disjunction	positive	1	X_blue	hit	J	4694	2	24061060	1	4834	1	0	next
disjunction	negative	5	Null	hit	F	14369	2	24091228	1	14501	1	0	next
disjunction	negative	5	Null	hit	F	10215	2	24131064	1	10334	1	0	next
disjunction	negative	30	Null	hit	F	11985	2	24166733	1	12168	1	0	next
disjunction	negative	30	Null	hit	F	18642	2	24204236	1	18835	1	0	next
disjunction	negative	30	Null	hit	F	12877	2	24248405	1	13001	1	0	next
disjunction	positive	30	S_brown	hit	J	20462	2	24286741	1	20668	1	0	next
disjunction	positive	5	X_blue	hit	J	6621	2	24332744	1	6667	1	0	next
disjunction	negative	30	Null	hit	F	20380	2	24364746	1	20501	1	0	next
disjunction	positive	30	S_brown	hit	J	14065	2	24410582	1	14168	1	0	next
disjunction	negative	1	Null	hit	F	24803	2	24450085	1	25002	1	0	next
disjunction	negative	15	Null	hit	F	16227	2	24500421	1	16334	1	0	next
disjunction	negative	15	Null	hit	F	27356	2	24542091	1	27502	1	0	next
disjunction	negative	30	Null	hit	F	5402	2	24594928	1	5500	1	0	next
disjunction	positive	1	X_blue	hit	J	7049	2	24625763	1	7167	1	0	next
disjunction	positive	30	T_blue	hit	J	5426	2	24658265	1	5500	1	0	next
disjunction	positive	5	S_brown	hit	J	8993	2	24689100	1	9167	1	0	next
disjunction	negative	30	Null	hit	F	14812	2	24723602	1	15001	1	0	next
disjunction	negative	30	Null	hit	F	8557	2	24763938	1	8667	1	0	next
disjunction	negative	1	Null	hit	F	7352	2	24797940	1	7500	1	0	next
disjunction	negative	1	Null	hit	F	5877	2	24830776	1	6000	1	0	next
disjunction	negative	5	Null	hit	F	11183	2	24862111	1	11334	1	0	next
disjunction	negative	30	Null	hit	F	13076	2	24898780	1	13168	1	0	next
disjunction	positive	5	T_blue	hit	J	11059	2	24937283	1	11167	1	0	next
disjunction	positive	5	S_brown	hit	J	32632	2	24973785	1	32669	1	0	next
disjunction	negative	15	Null	hit	F	13672	2	25031789	1	13834	1	0	next
disjunction	positive	1	T_blue	hit	J	5701	2	25070958	1	5834	1	0	next
disjunction	negative	5	Null	hit	F	7819	2	25102127	1	8001	1	0	next
disjunction	negative	5	Null	hit	F	9042	2	25135462	1	9167	1	0	next
disjunction	positive	5	S_green	hit	J	46221	2	25169964	1	46336	1	0	next
disjunction	positive	5	S_green	hit	J	4949	2	25241636	1	5000	1	0	next
disjunction	positive	1	S_brown	hit	J	6297	2	25271971	1	6334	1	0	next
disjunction	negative	15	Null	hit	F	14305	2	25303640	1	14501	1	0	next
disjunction	positive	15	S_green	incorrect	F	8872	2	25343475	1	9001	1	0	next
disjunction	positive	30	X_blue	hit	J	7338	2	25377811	1	7501	1	0	next
disjunction	negative	30	Null	hit	F	39782	2	25410646	1	39836	1	0	next
disjunction	positive	1	X_blue	hit	J	6455	2	25475817	1	6500	1	0	next
disjunction	negative	15	Null	hit	F	9018	2	25507653	1	9167	1	0	next
disjunction	positive	5	X_blue	hit	J	6042	2	25542155	1	6167	1	0	next
disjunction	positive	5	T_blue	hit	J	4777	2	25573657	1	4834	1	0	next
disjunction	positive	1	X_blue	hit	J	3889	2	25603825	1	4000	1	0	next
disjunction	positive	1	T_blue	hit	J	3355	2	25633161	1	3500	1	0	next
disjunction	negative	1	Null	hit	F	6839	2	25661996	1	7000	1	0	next
disjunction	negative	15	Null	hit	F	11788	2	25694331	1	11834	1	0	next
disjunction	negative	5	Null	hit	F	9657	2	25731500	1	9834	1	0	next
disjunction	negative	15	Null	hit	F	8891	2	25766669	1	9001	1	0	next
disjunction	negative	1	Null	hit	F	8638	2	25801005	1	8667	1	0	next
disjunction	positive	15	X_blue	hit	J	8393	2	25835007	1	8501	1	0	next
disjunction	positive	5	T_blue	hit	J	4163	2	25868843	1	4334	1	0	next
disjunction	positive	15	T_blue	hit	J	8731	2	25898511	1	8834	1	0	next
disjunction	positive	15	X_blue	hit	J	4482	2	25932680	1	4667	1	0	next
disjunction	positive	15	S_green	incorrect	F	8885	2	25962682	1	9001	1	0	next
disjunction	positive	15	T_blue	hit	J	5587	2	25997017	1	5667	1	0	next
disjunction	negative	15	Null	hit	F	14107	2	26028019	1	14168	1	0	next
disjunction	positive	30	X_blue	hit	J	6926	2	26067522	1	7000	1	0	next
disjunction	positive	30	S_brown	hit	J	22109	2	26099857	1	22168	1	0	next
disjunction	negative	15	Null	hit	F	8687	2	26147360	1	8834	1	0	next
disjunction	negative	5	Null	hit	F	8282	2	26181529	1	8334	1	0	next
disjunction	positive	15	S_brown	hit	J	6613	2	26215198	1	6667	1	0	next
disjunction	positive	15	S_green	hit	J	8530	2	26247200	1	8667	1	0	next
disjunction	positive	30	T_blue	hit	J	6528	2	26281202	1	6667	1	0	next
disjunction	negative	15	Null	hit	F	14367	2	26313204	1	14501	1	0	next
disjunction	negative	30	Null	hit	F	12935	2	26353040	1	13001	1	0	next
disjunction	negative	15	Null	hit	F	30920	2	26391376	1	31002	1	0	next
disjunction	positive	1	T_blue	hit	J	7544	2	26447713	1	7667	1	0	next
disjunction	positive	15	S_brown	hit	J	9422	2	26480715	1	9501	1	0	next
disjunction	negative	15	Null	hit	F	31866	2	26515551	1	32002	1	0	next
disjunction	positive	15	X_blue	hit	J	19494	2	26572888	1	19668	1	0	next
disjunction	positive	15	S_brown	hit	J	8091	2	26617891	1	8167	1	0	next
disjunction	positive	15	S_brown	hit	J	5948	2	26651393	1	6000	1	0	next
disjunction	negative	1	Null	hit	F	6772	2	26682728	1	6834	1	0	next
disjunction	positive	1	T_blue	incorrect	F	4364	2	26714897	1	4500	1	0	next
disjunction	positive	1	S_green	hit	J	4453	2	26744732	1	4500	1	0	next
disjunction	negative	5	Null	incorrect	J	7418	2	26774567	1	7500	1	0	next
disjunction	positive	15	S_brown	hit	J	12821	2	26807403	1	13001	1	0	next
disjunction	positive	30	S_brown	hit	J	9367	2	26845739	1	9501	1	0	next
disjunction	negative	5	Null	hit	F	13736	2	26880574	1	13834	1	0	next
disjunction	positive	30	T_blue	hit	J	11047	2	26919743	1	11167	1	0	next
disjunction	negative	1	Null	hit	F	17585	2	26956246	1	17668	1	0	next
disjunction	negative	1	Null	hit	F	7859	2	26999248	1	8001	1	0	next
disjunction	positive	1	S_brown	hit	J	10846	2	27032584	1	11001	1	0	next
disjunction	negative	15	Null	hit	F	17871	2	27068920	1	18001	1	0	next
disjunction	negative	1	Null	hit	F	17260	2	27112256	1	17334	1	0	next
disjunction	positive	30	S_green	hit	J	8509	2	27154925	1	8667	1	0	next
disjunction	negative	1	Null	hit	F	6667	2	27188927	1	6834	1	0	next
disjunction	negative	5	Null	hit	F	12421	2	27221096	1	12501	1	0	next
disjunction	positive	30	S_green	incorrect	F	826	2	27258932	1	1000	1	0	next
disjunction	negative	1	Null	hit	F	12254	2	27285267	1	12334	1	0	next
disjunction	positive	30	S_green	hit	J	8985	2	27322936	1	9167	1	0	next
disjunction	positive	1	S_green	hit	J	7923	2	27357438	1	8001	1	0	next
disjunction	positive	30	S_brown	hit	J	10747	2	27390774	1	10834	1	0	next
disjunction	negative	5	Null	hit	F	17462	2	27426943	1	17501	1	0	next
disjunction	positive	30	S_brown	incorrect	F	16703	2	27469779	1	16834	1	0	next
disjunction	positive	30	S_green	hit	J	10855	2	27511948	1	11001	1	0	next
disjunction	negative	1	Null	hit	F	18680	2	27548284	1	18835	1	0	next
disjunction	negative	5	Null	hit	F	12754	2	27592453	1	12834	1	0	next
disjunction	negative	1	Null	hit	F	6909	2	27630622	1	7000	1	0	next
conjunction	positive	30	T_green	incorrect	F	58779	2	27681792	1	58837	1	0	next
conjunction	negative	5	Null	hit	F	9007	2	27765964	1	9167	1	0	next
conjunction	positive	15	T_green	hit	J	19627	2	27800466	1	19668	1	0	next
conjunction	positive	30	T_green	hit	J	10625	2	27845469	1	10667	1	0	next
conjunction	negative	1	Null	hit	F	12859	2	27881472	1	13001	1	0	next
conjunction	positive	15	T_green	hit	J	7648	2	27919807	1	7834	1	0	next
conjunction	negative	30	Null	hit	F	27920	2	27952976	1	28002	1	0	next
conjunction	negative	1	Null	hit	F	6585	2	28006313	1	6667	1	0	next
conjunction	positive	5	T_green	hit	J	7704	2	28038315	1	7834	1	0	next
conjunction	negative	15	Null	hit	F	18055	2	28071484	1	18168	1	0	next
conjunction	positive	5	T_green	hit	J	12313	2	28114987	1	12501	1	0	next
conjunction	positive	15	T_green	hit	J	15116	2	28152822	1	15168	1	0	next
conjunction	positive	5	T_green	hit	J	5974	2	28193325	1	6000	1	0	next
conjunction	positive	30	T_green	hit	J	20723	2	28224660	1	20835	1	0	next
conjunction	negative	30	Null	hit	F	42073	2	28270830	1	42169	1	0	next
conjunction	positive	15	T_green	hit	J	15529	2	28338334	1	15668	1	0	next
conjunction	negative	5	Null	hit	F	10371	2	28379337	1	10501	1	0	next
conjunction	negative	30	Null	hit	F	38373	2	28415173	1	38502	1	0	next
conjunction	negative	30	Null	incorrect	J	12139	2	28479010	1	12334	1	0	next
conjunction	positive	5	T_green	hit	J	5992	2	28516679	1	6167	1	0	next
conjunction	positive	30	T_green	hit	J	23292	2	28548181	1	23335	1	0	next
conjunction	positive	30	T_green	hit	J	9340	2	28596851	1	9501	1	0	next
conjunction	positive	30	T_green	hit	J	15147	2	28631686	1	15334	1	0	next
conjunction	positive	1	T_green	hit	J	6479	2	28672356	1	6667	1	0	next
conjunction	negative	1	Null	hit	F	26957	2	28704358	1	27002	1	0	next
conjunction	negative	15	Null	hit	F	30308	2	28756695	1	30502	1	0	next
conjunction	negative	1	Null	hit	F	8705	2	28812531	1	8834	1	0	next
conjunction	positive	1	T_green	hit	J	14375	2	28846700	1	14501	1	0	next
conjunction	positive	15	T_green	hit	J	5264	2	28886536	1	5334	1	0	next
conjunction	positive	1	T_green	hit	J	6115	2	28917205	1	6167	1	0	next
conjunction	negative	15	Null	hit	F	17494	2	28948707	1	17668	1	0	next
conjunction	positive	30	T_green	hit	J	28253	2	28991710	1	28335	1	0	next
conjunction	positive	30	T_green	hit	J	18901	2	29045380	1	19001	1	0	next
conjunction	positive	5	T_green	hit	J	9127	2	29089716	1	9167	1	0	next
conjunction	negative	5	Null	hit	F	8068	2	29124218	1	8167	1	0	next
conjunction	negative	1	Null	incorrect	J	7524	2	29157720	1	7667	1	0	next
conjunction	negative	1	Null	hit	F	8608	2	29190722	1	8667	1	0	next
conjunction	positive	30	T_green	hit	J	23885	2	29224725	1	24002	1	0	next
conjunction	positive	5	T_green	hit	J	5749	2	29274061	1	5834	1	0	next
conjunction	negative	15	Null	hit	F	24819	2	29305230	1	25002	1	0	next
conjunction	positive	1	T_green	hit	J	23126	2	29355566	1	23168	1	0	next
conjunction	positive	5	T_green	hit	J	7263	2	29404069	1	7334	1	0	next
conjunction	negative	15	Null	hit	F	28834	2	29436738	1	29002	1	0	next
conjunction	negative	1	Null	hit	F	9217	2	29491075	1	9334	1	0	next
conjunction	positive	30	T_green	hit	J	7830	2	29525744	1	8001	1	0	next
conjunction	positive	5	T_green	hit	J	7457	2	29559079	1	7500	1	0	next
conjunction	negative	30	Null	hit	F	37342	2	29591915	1	37502	1	0	next
conjunction	negative	30	Null	hit	F	21228	2	29654752	1	21335	1	0	next
conjunction	positive	15	T_green	hit	J	6238	2	29701422	1	6334	1	0	next
conjunction	negative	30	Null	hit	F	19373	2	29733091	1	19501	1	0	next
conjunction	negative	5	Null	hit	F	11499	2	29777927	1	11667	1	0	next
conjunction	positive	5	T_green	hit	J	4575	2	29814929	1	4667	1	0	next
conjunction	negative	15	Null	hit	F	19851	2	29844931	1	20001	1	0	next
conjunction	positive	5	T_green	hit	J	4915	2	29890267	1	5000	1	0	next
conjunction	negative	30	Null	hit	F	30741	2	29920603	1	30835	1	0	next
conjunction	negative	30	Null	hit	F	29455	2	29976773	1	29502	1	0	next
conjunction	positive	30	T_green	incorrect	F	22619	2	30031610	1	22668	1	0	next
conjunction	negative	1	Null	incorrect	J	8217	2	30079613	1	8334	1	0	next
conjunction	positive	5	T_green	hit	J	10549	2	30113282	1	10667	1	0	next
conjunction	positive	5	T_green	hit	J	5750	2	30149284	1	5834	1	0	next
conjunction	positive	15	T_green	hit	J	8178	2	30180453	1	8334	1	0	next
conjunction	negative	1	Null	hit	F	7310	2	30214121	1	7500	1	0	next
conjunction	negative	5	Null	hit	F	10635	2	30246957	1	10667	1	0	next
conjunction	negative	1	Null	hit	F	9514	2	30282959	1	9667	1	0	next
conjunction	negative	15	Null	hit	F	16435	2	30317961	1	16501	1	0	next
conjunction	negative	1	Null	hit	F	7880	2	30359797	1	8001	1	0	next
conjunction	positive	30	T_green	hit	J	10862	2	30393133	1	11001	1	0	next
conjunction	positive	30	T_green	hit	J	12613	2	30429469	1	12668	1	0	next
conjunction	positive	5	T_green	hit	J	10289	2	30467471	1	10334	1	0	next
conjunction	negative	30	Null	hit	F	21821	2	30503140	1	22001	1	0	next
conjunction	negative	1	Null	hit	F	5362	2	30550476	1	5500	1	0	next
conjunction	positive	15	T_green	hit	J	9889	2	30581312	1	10001	1	0	next
conjunction	positive	15	T_green	hit	J	12476	2	30616647	1	12668	1	0	next
conjunction	negative	30	Null	hit	F	31913	2	30654650	1	32002	1	0	next
conjunction	positive	1	T_green	incorrect	F	2575	2	30711987	1	2667	1	0	next
conjunction	negative	5	Null	hit	F	16337	2	30739988	1	16501	1	0	next
conjunction	positive	30	T_green	hit	J	8901	2	30781825	1	9001	1	0	next
conjunction	positive	1	T_green	hit	J	4167	2	30816160	1	4334	1	0	next
conjunction	positive	30	T_green	hit	J	10339	2	30845829	1	10501	1	0	next
conjunction	positive	5	T_green	hit	J	6986	2	30881664	1	7167	1	0	next
conjunction	positive	1	T_green	hit	J	4565	2	30914166	1	4667	1	0	next
conjunction	positive	15	T_green	hit	J	8485	2	30944168	1	8667	1	0	next
conjunction	positive	30	T_green	hit	J	9843	2	30978170	1	10001	1	0	next
conjunction	negative	30	Null	hit	F	24907	2	31013506	1	25002	1	0	next
conjunction	positive	5	T_green	hit	J	8811	2	31063843	1	9001	1	0	next
conjunction	negative	30	Null	hit	F	29355	2	31098178	1	29502	1	0	next
conjunction	positive	1	T_green	hit	J	5723	2	31153015	1	5834	1	0	next
conjunction	negative	1	Null	hit	F	9436	2	31184184	1	9501	1	0	next
conjunction	positive	15	T_green	hit	J	20197	2	31219019	1	20335	1	0	next
conjunction	positive	1	T_green	hit	J	4132	2	31264689	1	4167	1	0	next
conjunction	positive	1	T_green	hit	J	3912	2	31294191	1	4000	1	0	next
conjunction	negative	30	Null	hit	F	24014	2	31323526	1	24168	1	0	next
conjunction	negative	1	Null	incorrect	J	6190	2	31373029	1	6334	1	0	next
conjunction	negative	1	Null	hit	F	20443	2	31404698	1	20501	1	0	next
conjunction	positive	1	T_green	hit	J	29169	2	31450534	1	29335	1	0	next
conjunction	positive	5	T_green	hit	J	9061	2	31505204	1	9167	1	0	next
conjunction	negative	15	Null	hit	F	22721	2	31539706	1	22835	1	0	next
conjunction	negative	5	Null	hit	F	13592	2	31587876	1	13668	1	0	next
conjunction	positive	1	T_green	hit	J	5630	2	31626879	1	5667	1	0	next
conjunction	positive	1	T_green	hit	J	5346	2	31657881	1	5500	1	0	next
conjunction	positive	1	T_green	hit	J	3795	2	31688716	1	3834	1	0	next
conjunction	negative	5	Null	hit	F	9665	2	31717885	1	9834	1	0	next
conjunction	positive	1	T_green	hit	J	7779	2	31753053	1	7834	1	0	next
conjunction	positive	1	T_green	hit	J	7570	2	31786222	1	7667	1	0	next
conjunction	negative	30	Null	hit	F	17927	2	31819224	1	18001	1	0	next
conjunction	positive	15	T_green	hit	J	6432	2	31862561	1	6500	1	0	next
conjunction	negative	5	Null	hit	F	11080	2	31894396	1	11167	1	0	next
conjunction	negative	1	Null	hit	F	6738	2	31930898	1	6834	1	0	next
conjunction	positive	15	T_green	hit	J	12009	2	31963067	1	12167	1	0	next
conjunction	negative	5	Null	hit	F	15146	2	32000569	1	15334	1	0	next
conjunction	positive	15	T_green	incorrect	F	13838	2	32041239	1	14001	1	0	next
conjunction	positive	15	T_green	hit	J	8587	2	32080575	1	8667	1	0	next
conjunction	positive	15	T_green	incorrect	F	11066	2	32114577	1	11167	1	0	next
conjunction	negative	5	Null	hit	F	24485	2	32151079	1	24668	1	0	next
conjunction	negative	30	Null	hit	F	19602	2	32201082	1	19668	1	0	next
conjunction	negative	15	Null	hit	F	16356	2	32246085	1	16501	1	0	next
conjunction	negative	5	Null	hit	F	10044	2	32287921	1	10167	1	0	next
conjunction	negative	15	Null	hit	F	11662	2	32323423	1	11834	1	0	next
conjunction	negative	5	Null	hit	F	9212	2	32360593	1	9334	1	0	next
conjunction	negative	5	Null	hit	F	7504	2	32395261	1	7667	1	0	next
conjunction	negative	15	Null	hit	F	14665	2	32428264	1	14834	1	0	next
conjunction	negative	15	Null	hit	F	15295	2	32468433	1	15334	1	0	next
conjunction	negative	15	Null	hit	F	13508	2	32509102	1	13668	1	0	next
conjunction	negative	15	Null	hit	F	17865	2	32548105	1	18001	1	0	next
conjunction	negative	5	Null	hit	F	5250	2	32591441	1	5334	1	0	next
conjunction	negative	15	Null	hit	F	12825	2	32622109	1	13001	1	0	next
conjunction	negative	15	Null	hit	F	9368	2	32660445	1	9501	1	0	next
conjunction	negative	5	Null	hit	F	6212	2	32695281	1	6334	1	0	next
