Target_Type	Trial_Type	Display_Size	Target	Response	Key_press	RT	Uncertainty	Time	Uncertainty	Duration	Uncertainty	ReqTime	ReqDur
disjunction	positive	1	X_blue	hit	J	7674	2	124385	1	7834	1	0	next
disjunction	positive	1	X_blue	hit	J	7423	2	157553	1	7501	1	0	next
disjunction	negative	5	Null	hit	F	11055	2	190389	1	11167	1	0	next
disjunction	positive	5	S_brown	hit	J	8831	2	226891	1	9001	1	0	next
disjunction	positive	30	S_brown	hit	J	9672	2	261227	1	9834	1	0	next
disjunction	positive	15	T_blue	hit	J	7484	2	296396	1	7667	1	0	next
disjunction	negative	1	Null	hit	F	7776	2	329398	1	7834	1	0	next
disjunction	negative	30	Null	hit	F	15758	2	362567	1	15834	1	0	next
disjunction	negative	1	Null	hit	F	6958	2	403736	1	7000	1	0	next
disjunction	positive	1	S_green	hit	J	7706	2	436071	1	7834	1	0	next
disjunction	positive	5	X_blue	hit	J	4095	2	469240	1	4167	1	0	next
disjunction	negative	30	Null	hit	F	10831	2	498742	1	11001	1	0	next
disjunction	positive	5	S_brown	hit	J	9629	2	535078	1	9667	1	0	next
disjunction	negative	5	Null	hit	F	8910	2	570080	1	9001	1	0	next
disjunction	positive	1	X_blue	hit	J	4527	2	604415	1	4667	1	0	next
disjunction	negative	15	Null	hit	F	9419	2	634417	1	9501	1	0	next
disjunction	positive	15	X_blue	hit	J	9272	2	669253	1	9334	1	0	next
disjunction	positive	15	T_blue	hit	J	5148	2	703922	1	5334	1	0	next
disjunction	negative	15	Null	hit	F	10765	2	734590	1	10834	1	0	next
disjunction	negative	5	Null	hit	F	6650	2	770759	1	6834	1	0	next
disjunction	positive	5	S_brown	hit	J	8045	2	802928	1	8167	1	0	next
disjunction	negative	15	Null	hit	F	10654	2	836430	1	10834	1	0	next
disjunction	positive	15	S_green	incorrect	F	9461	2	872599	1	9501	1	0	next
disjunction	negative	15	Null	hit	F	10353	2	907435	1	10501	1	0	next
disjunction	negative	1	Null	hit	F	6840	2	943270	1	7000	1	0	next
disjunction	negative	15	Null	hit	F	5846	2	975606	1	6000	1	0	next
disjunction	negative	5	Null	incorrect	J	9066	2	1006941	1	9167	1	0	next
disjunction	negative	1	Null	hit	F	5788	2	1041443	1	5834	1	0	next
disjunction	negative	5	Null	hit	F	5026	2	1072612	1	5167	1	0	next
disjunction	positive	5	T_blue	hit	J	6409	2	1103114	1	6500	1	0	next
disjunction	negative	1	Null	hit	F	6465	2	1134949	1	6667	1	0	next
disjunction	positive	30	S_green	hit	J	10641	2	1166952	1	10834	1	0	next
disjunction	negative	1	Null	hit	F	6887	2	1203121	1	7000	1	0	next
disjunction	negative	5	Null	hit	F	5862	2	1235456	1	6000	1	0	next
disjunction	negative	30	Null	hit	F	8438	2	1266791	1	8501	1	0	next
disjunction	negative	5	Null	hit	F	6201	2	1300627	1	6334	1	0	next
disjunction	negative	15	Null	hit	F	5098	2	1332296	1	5167	1	0	next
disjunction	negative	15	Null	hit	F	4677	2	1362797	1	4834	1	0	next
disjunction	negative	1	Null	hit	F	7190	2	1392966	1	7334	1	0	next
disjunction	negative	1	Null	hit	F	4765	2	1425635	1	4834	1	0	next
disjunction	positive	5	S_green	incorrect	F	8521	2	1455803	1	8667	1	0	next
disjunction	negative	1	Null	hit	F	5196	2	1489806	1	5334	1	0	next
disjunction	negative	30	Null	hit	F	5608	2	1520474	1	5667	1	0	next
disjunction	positive	5	S_green	hit	J	5247	2	1551476	1	5334	1	0	next
disjunction	negative	15	Null	hit	F	4926	2	1582145	1	5000	1	0	next
disjunction	negative	15	Null	hit	F	6537	2	1612480	1	6667	1	0	next
disjunction	positive	5	S_green	hit	J	4119	2	1644482	1	4167	1	0	next
disjunction	positive	30	X_blue	hit	J	5790	2	1673984	1	5834	1	0	next
disjunction	negative	5	Null	hit	F	10723	2	1705153	1	10834	1	0	next
disjunction	positive	5	X_blue	hit	J	6788	2	1741322	1	6834	1	0	next
disjunction	positive	15	X_blue	hit	J	4533	2	1773490	1	4667	1	0	next
disjunction	negative	5	Null	hit	F	7222	2	1803492	1	7334	1	0	next
disjunction	negative	1	Null	hit	F	6286	2	1836161	1	6334	1	0	next
disjunction	negative	1	Null	hit	F	5027	2	1867830	1	5167	1	0	next
disjunction	positive	30	S_brown	hit	J	6948	2	1898332	1	7000	1	0	next
disjunction	positive	1	S_green	incorrect	F	6452	2	1930667	1	6500	1	0	next
disjunction	positive	30	T_blue	hit	J	5624	2	1962503	1	5667	1	0	next
disjunction	positive	1	T_blue	hit	J	4204	2	1993505	1	4334	1	0	next
disjunction	negative	30	Null	hit	F	5574	2	2023173	1	5667	1	0	next
disjunction	positive	1	S_brown	hit	J	6262	2	2054175	1	6334	1	0	next
disjunction	negative	1	Null	hit	F	6851	2	2085844	1	7000	1	0	next
disjunction	negative	5	Null	hit	F	9268	2	2118179	1	9334	1	0	next
disjunction	positive	30	X_blue	hit	J	6187	2	2152848	1	6334	1	0	next
disjunction	positive	15	S_brown	hit	J	10132	2	2184517	1	10167	1	0	next
disjunction	positive	5	T_blue	hit	J	7330	2	2220019	1	7500	1	0	next
disjunction	negative	15	Null	hit	F	7230	2	2252855	1	7334	1	0	next
disjunction	positive	5	T_blue	hit	J	5138	2	2285523	1	5167	1	0	next
disjunction	positive	15	S_green	incorrect	F	6898	2	2316025	1	7000	1	0	next
disjunction	negative	15	Null	incorrect	J	7363	2	2348361	1	7501	1	0	next
disjunction	negative	15	Null	hit	F	8580	2	2381196	1	8667	1	0	next
disjunction	positive	15	S_green	hit	J	7284	2	2415198	1	7334	1	0	next
disjunction	negative	15	Null	hit	F	7275	2	2447867	1	7334	1	0	next
disjunction	negative	15	Null	hit	F	6176	2	2480536	1	6334	1	0	next
disjunction	negative	30	Null	hit	F	6935	2	2512205	1	7000	1	0	next
disjunction	positive	1	S_brown	hit	J	4408	2	2544540	1	4500	1	0	next
disjunction	positive	1	X_blue	incorrect	F	3884	2	2574375	1	4000	1	0	next
disjunction	positive	15	S_green	hit	J	4924	2	2603710	1	5000	1	0	next
disjunction	positive	15	X_blue	hit	J	5463	2	2634046	1	5667	1	0	next
disjunction	negative	1	Null	hit	F	6530	2	2665048	1	6667	1	0	next
disjunction	positive	1	T_blue	hit	J	4401	2	2697050	1	4500	1	0	next
disjunction	negative	15	Null	hit	F	9020	2	2726885	1	9167	1	0	next
disjunction	negative	5	Null	hit	F	5167	2	2761387	1	5334	1	0	next
disjunction	negative	5	Null	hit	F	5663	2	2792056	1	5834	1	0	next
disjunction	positive	1	S_green	hit	J	4878	2	2823225	1	5000	1	0	next
disjunction	negative	15	Null	hit	F	6457	2	2853560	1	6500	1	0	next
disjunction	positive	5	X_blue	hit	J	5007	2	2885395	1	5167	1	0	next
disjunction	negative	5	Null	hit	F	7599	2	2915897	1	7667	1	0	next
disjunction	positive	5	X_blue	hit	J	4712	2	2948899	1	4834	1	0	next
disjunction	positive	5	T_blue	hit	J	4312	2	2979068	1	4500	1	0	next
disjunction	positive	1	S_green	incorrect	F	7465	2	3008903	1	7500	1	0	next
disjunction	negative	1	Null	hit	F	10933	2	3041738	1	11001	1	0	next
disjunction	negative	5	Null	hit	F	7525	2	3078074	1	7667	1	0	next
disjunction	positive	1	S_brown	hit	J	5923	2	3111076	1	6000	1	0	next
disjunction	negative	30	Null	hit	F	5356	2	3142412	1	5500	1	0	next
disjunction	positive	1	S_brown	hit	J	4051	2	3173247	1	4167	1	0	next
disjunction	negative	30	Null	hit	F	6374	2	3202749	1	6500	1	0	next
disjunction	positive	15	S_brown	hit	J	4316	2	3234584	1	4500	1	0	next
disjunction	negative	30	Null	hit	F	7332	2	3264419	1	7500	1	0	next
disjunction	positive	30	S_green	hit	J	5110	2	3297255	1	5167	1	0	next
disjunction	positive	30	T_blue	incorrect	F	5044	2	3327757	1	5167	1	0	next
disjunction	positive	5	T_blue	hit	J	5128	2	3358259	1	5167	1	0	next
disjunction	positive	1	S_green	hit	J	5213	2	3388761	1	5334	1	0	next
disjunction	positive	1	S_brown	hit	J	3659	2	3419429	1	3834	1	0	next
disjunction	positive	15	S_green	hit	J	5066	2	3448598	1	5167	1	0	next
disjunction	positive	5	S_brown	hit	J	8262	2	3479100	1	8334	1	0	next
disjunction	positive	30	S_green	hit	J	7575	2	3512769	1	7667	1	0	next
disjunction	positive	15	T_blue	hit	J	4804	2	3545771	1	5000	1	0	next
disjunction	negative	5	Null	hit	F	6088	2	3576106	1	6167	1	0	next
disjunction	negative	30	Null	hit	F	6594	2	3607608	1	6667	1	0	next
disjunction	negative	30	Null	hit	F	6069	2	3639610	1	6167	1	0	next
disjunction	positive	30	X_blue	hit	J	5530	2	3671112	1	5667	1	0	next
disjunction	positive	30	T_blue	hit	J	3964	2	3702114	1	4000	1	0	next
disjunction	positive	30	X_blue	hit	J	4140	2	3731449	1	4334	1	0	next
disjunction	positive	15	X_blue	hit	J	3499	2	3761118	1	3667	1	0	next
disjunction	positive	30	S_brown	incorrect	F	5667	2	3790120	1	5834	1	0	next
disjunction	positive	30	S_brown	hit	J	5237	2	3821289	1	5334	1	0	next
disjunction	negative	1	Null	hit	F	6815	2	3851957	1	7000	1	0	next
disjunction	positive	30	S_brown	hit	J	7789	2	3884293	1	7834	1	0	next
disjunction	positive	15	T_blue	hit	J	5560	2	3917461	1	5667	1	0	next
disjunction	positive	15	T_blue	hit	J	4353	2	3948463	1	4500	1	0	next
disjunction	positive	30	T_blue	hit	J	4057	2	3978299	1	4167	1	0	next
disjunction	negative	1	Null	hit	F	8141	2	4007801	1	8334	1	0	next
disjunction	negative	5	Null	hit	F	6566	2	4041469	1	6667	1	0	next
disjunction	negative	30	Null	incorrect	J	4995	2	4073471	1	5167	1	0	next
disjunction	negative	30	Null	hit	F	5345	2	4103973	1	5500	1	0	next
disjunction	negative	30	Null	hit	F	6168	2	4134809	1	6334	1	0	next
disjunction	negative	30	Null	hit	F	5811	2	4166477	1	6000	1	0	next
disjunction	negative	30	Null	hit	F	7262	2	4197813	1	7334	1	0	next
conjunction	negative	30	Null	incorrect	J	6140	2	4317987	1	6334	1	0	next
conjunction	positive	1	T_green	incorrect	F	5583	2	4349656	1	5667	1	0	next
conjunction	positive	1	T_green	hit	J	4757	2	4380658	1	4834	1	0	next
conjunction	negative	5	Null	hit	F	7503	2	4410826	1	7667	1	0	next
conjunction	negative	30	Null	hit	F	5788	2	4443829	1	5834	1	0	next
conjunction	negative	30	Null	hit	F	4821	2	4474997	1	5000	1	0	next
conjunction	negative	30	Null	hit	F	4692	2	4505332	1	4834	1	0	next
conjunction	positive	15	T_green	incorrect	F	4771	2	4535501	1	4834	1	0	next
conjunction	positive	1	T_green	hit	J	4827	2	4565670	1	5000	1	0	next
conjunction	positive	15	T_green	hit	J	4460	2	4596005	1	4667	1	0	next
conjunction	positive	5	T_green	hit	J	5432	2	4626007	1	5500	1	0	next
conjunction	negative	5	Null	incorrect	J	6492	2	4656842	1	6667	1	0	next
conjunction	negative	30	Null	incorrect	J	4556	2	4688844	1	4667	1	0	next
conjunction	negative	1	Null	hit	F	7942	2	4718846	1	8000	1	0	next
conjunction	positive	30	T_green	incorrect	F	5934	2	4752182	1	6000	1	0	next
conjunction	positive	1	T_green	hit	J	4348	2	4783517	1	4500	1	0	next
conjunction	negative	5	Null	incorrect	J	5606	2	4813352	1	5667	1	0	next
conjunction	negative	15	Null	hit	F	8021	2	4844354	1	8167	1	0	next
conjunction	positive	30	T_green	incorrect	F	7340	2	4877856	1	7500	1	0	next
conjunction	negative	15	Null	hit	F	11281	2	4910692	1	11334	1	0	next
conjunction	negative	30	Null	hit	F	12686	2	4947361	1	12834	1	0	next
conjunction	negative	5	Null	hit	F	7032	2	4985530	1	7167	1	0	next
conjunction	negative	1	Null	incorrect	J	6749	2	5018032	1	6834	1	0	next
conjunction	positive	5	T_green	incorrect	F	8056	2	5050201	1	8167	1	0	next
conjunction	negative	5	Null	hit	F	7944	2	5083703	1	8001	1	0	next
conjunction	positive	5	T_green	incorrect	F	6387	2	5117038	1	6500	1	0	next
conjunction	negative	30	Null	incorrect	J	8649	2	5148874	1	8834	1	0	next
conjunction	negative	5	Null	hit	F	7834	2	5183043	1	8001	1	0	next
conjunction	positive	5	T_green	hit	J	8158	2	5216378	1	8334	1	0	next
conjunction	positive	30	T_green	hit	J	5662	2	5250047	1	5834	1	0	next
conjunction	negative	5	Null	hit	F	7827	2	5281216	1	8001	1	0	next
conjunction	negative	15	Null	hit	F	7735	2	5314551	1	7834	1	0	next
conjunction	positive	30	T_green	hit	J	5724	2	5347720	1	5834	1	0	next
conjunction	positive	30	T_green	hit	J	13678	2	5378889	1	13834	1	0	next
conjunction	negative	5	Null	hit	F	7918	2	5418058	1	8001	1	0	next
conjunction	negative	5	Null	hit	F	7445	2	5451393	1	7501	1	0	next
conjunction	negative	15	Null	hit	F	10429	2	5484229	1	10501	1	0	next
conjunction	negative	1	Null	incorrect	J	7378	2	5520064	1	7500	1	0	next
conjunction	positive	1	T_green	hit	J	5306	2	5552900	1	5500	1	0	next
conjunction	positive	1	T_green	hit	J	7080	2	5583735	1	7167	1	0	next
conjunction	negative	5	Null	hit	F	6880	2	5616237	1	7000	1	0	next
conjunction	negative	1	Null	hit	F	5356	2	5648573	1	5500	1	0	next
conjunction	negative	15	Null	hit	F	8192	2	5679408	1	8334	1	0	next
conjunction	negative	30	Null	incorrect	J	6829	2	5713077	1	7000	1	0	next
conjunction	positive	1	T_green	hit	J	5189	2	5745412	1	5334	1	0	next
conjunction	negative	15	Null	hit	F	7656	2	5776081	1	7834	1	0	next
conjunction	positive	30	T_green	incorrect	F	10193	2	5809249	1	10334	1	0	next
conjunction	negative	5	Null	hit	F	10096	2	5844918	1	10167	1	0	next
conjunction	positive	15	T_green	incorrect	F	11823	2	5880421	1	12001	1	0	next
conjunction	negative	1	Null	hit	F	11083	2	5917756	1	11167	1	0	next
conjunction	negative	5	Null	hit	F	9221	2	5954259	1	9334	1	0	next
conjunction	positive	1	T_green	hit	J	5286	2	5988928	1	5334	1	0	next
conjunction	positive	1	T_green	hit	J	4467	2	6019596	1	4500	1	0	next
conjunction	positive	30	T_green	hit	J	5589	2	6049432	1	5667	1	0	next
conjunction	positive	1	T_green	hit	J	5363	2	6080434	1	5500	1	0	next
conjunction	positive	5	T_green	hit	J	5971	2	6111269	1	6167	1	0	next
conjunction	positive	15	T_green	hit	J	5427	2	6142771	1	5500	1	0	next
conjunction	negative	5	Null	hit	F	6206	2	6173606	1	6334	1	0	next
conjunction	positive	1	T_green	hit	J	4483	2	6205275	1	4667	1	0	next
conjunction	negative	15	Null	hit	F	15621	2	6235277	1	15668	1	0	next
conjunction	positive	1	T_green	hit	J	5104	2	6276279	1	5167	1	0	next
conjunction	positive	15	T_green	hit	J	5816	2	6306781	1	6000	1	0	next
conjunction	positive	1	T_green	hit	J	4603	2	6338117	1	4667	1	0	next
conjunction	positive	15	T_green	hit	J	5824	2	6368119	1	6000	1	0	next
conjunction	negative	1	Null	hit	F	7127	2	6399454	1	7167	1	0	next
conjunction	negative	30	Null	incorrect	J	4840	2	6431956	1	5000	1	0	next
conjunction	positive	5	T_green	hit	J	6044	2	6462291	1	6167	1	0	next
conjunction	positive	30	T_green	hit	J	5661	2	6493793	1	5834	1	0	next
conjunction	positive	1	T_green	hit	J	6003	2	6524962	1	6167	1	0	next
conjunction	positive	1	T_green	hit	J	5024	2	6556464	1	5167	1	0	next
conjunction	negative	30	Null	incorrect	J	6611	2	6586966	1	6667	1	0	next
conjunction	positive	1	T_green	hit	J	4643	2	6618968	1	4834	1	0	next
conjunction	negative	5	Null	hit	F	6906	2	6649137	1	7000	1	0	next
conjunction	positive	15	T_green	hit	J	8771	2	6681472	1	8834	1	0	next
conjunction	positive	15	T_green	hit	J	4886	2	6715641	1	5000	1	0	next
conjunction	positive	15	T_green	hit	J	7593	2	6745976	1	7667	1	0	next
conjunction	positive	30	T_green	hit	J	4642	2	6778978	1	4834	1	0	next
conjunction	positive	15	T_green	hit	J	6206	2	6809147	1	6334	1	0	next
conjunction	positive	30	T_green	hit	J	7037	2	6840816	1	7167	1	0	next
conjunction	positive	30	T_green	hit	J	5157	2	6873318	1	5334	1	0	next
conjunction	positive	30	T_green	hit	J	5342	2	6903986	1	5500	1	0	next
conjunction	positive	30	T_green	hit	J	4541	2	6934822	1	4667	1	0	next
conjunction	negative	5	Null	hit	F	6308	2	6964824	1	6500	1	0	next
conjunction	positive	5	T_green	hit	J	4719	2	6996659	1	4834	1	0	next
conjunction	negative	30	Null	incorrect	J	9854	2	7026828	1	10001	1	0	next
conjunction	negative	30	Null	hit	F	11736	2	7062163	1	11834	1	0	next
conjunction	positive	30	T_green	hit	J	5508	2	7099332	1	5667	1	0	next
conjunction	negative	30	Null	hit	F	9971	2	7130334	1	10167	1	0	next
conjunction	negative	1	Null	hit	F	6568	2	7165837	1	6667	1	0	next
conjunction	positive	30	T_green	hit	J	15307	2	7197839	1	15501	1	0	next
conjunction	negative	5	Null	hit	F	6606	2	7238675	1	6667	1	0	next
conjunction	negative	30	Null	hit	F	11392	2	7270677	1	11501	1	0	next
conjunction	positive	30	T_green	hit	J	6309	2	7307512	1	6500	1	0	next
conjunction	positive	5	T_green	hit	J	5803	2	7339348	1	6000	1	0	next
conjunction	negative	30	Null	hit	F	11678	2	7370683	1	11834	1	0	next
conjunction	positive	5	T_green	hit	J	5222	2	7407852	1	5334	1	0	next
conjunction	positive	5	T_green	hit	J	4612	2	7438521	1	4667	1	0	next
conjunction	positive	5	T_green	hit	J	6854	2	7468523	1	7000	1	0	next
conjunction	negative	1	Null	incorrect	J	4939	2	7500858	1	5000	1	0	next
conjunction	positive	15	T_green	hit	J	4532	2	7531193	1	4667	1	0	next
conjunction	positive	15	T_green	hit	J	9353	2	7561195	1	9501	1	0	next
conjunction	negative	15	Null	hit	F	13737	2	7596031	1	13834	1	0	next
conjunction	negative	30	Null	hit	F	11881	2	7635200	1	12001	1	0	next
conjunction	negative	15	Null	hit	F	9491	2	7672536	1	9667	1	0	next
conjunction	positive	15	T_green	hit	J	8216	2	7707538	1	8334	1	0	next
conjunction	positive	15	T_green	hit	J	5948	2	7741207	1	6000	1	0	next
conjunction	positive	15	T_green	hit	J	5750	2	7772542	1	5834	1	0	next
conjunction	negative	15	Null	hit	F	11409	2	7803711	1	11501	1	0	next
conjunction	negative	15	Null	hit	F	14835	2	7840547	1	15001	1	0	next
conjunction	positive	5	T_green	hit	J	6958	2	7880882	1	7000	1	0	next
conjunction	positive	5	T_green	hit	J	5238	2	7913218	1	5334	1	0	next
conjunction	positive	5	T_green	hit	J	4660	2	7943886	1	4834	1	0	next
conjunction	positive	5	T_green	hit	J	11141	2	7974055	1	11334	1	0	next
conjunction	positive	15	T_green	hit	J	5341	2	8010724	1	5500	1	0	next
conjunction	negative	1	Null	hit	F	6267	2	8041559	1	6334	1	0	next
conjunction	negative	15	Null	incorrect	J	5278	2	8073228	1	5334	1	0	next
conjunction	positive	5	T_green	hit	J	4293	2	8103897	1	4334	1	0	next
conjunction	negative	1	Null	hit	F	4911	2	8133565	1	5000	1	0	next
conjunction	negative	1	Null	hit	F	5500	2	8163901	1	5667	1	0	next
conjunction	negative	15	Null	hit	F	7604	2	8194903	1	7667	1	0	next
conjunction	negative	1	Null	hit	F	4906	2	8227905	1	5000	1	0	next
conjunction	negative	15	Null	incorrect	J	5423	2	8258240	1	5500	1	0	next
conjunction	negative	1	Null	hit	F	4715	2	8289075	1	4834	1	0	next
conjunction	negative	15	Null	incorrect	J	5444	2	8319244	1	5500	1	0	next
conjunction	negative	15	Null	hit	F	7769	2	8350079	1	7834	1	0	next
conjunction	negative	1	Null	hit	F	5792	2	8383248	1	5834	1	0	next
conjunction	negative	1	Null	hit	F	5107	2	8414417	1	5167	1	0	next
conjunction	negative	1	Null	hit	F	4852	2	8444919	1	5000	1	0	next
conjunction	positive	15	T_green	hit	J	6070	2	8490255	1	6167	1	0	next
conjunction	positive	5	T_green	hit	J	3951	2	8521757	1	4000	1	0	next
conjunction	negative	15	Null	hit	F	7611	2	8551092	1	7667	1	0	next
conjunction	positive	30	T_green	hit	J	4756	2	8584094	1	4834	1	0	next
conjunction	positive	5	T_green	hit	J	6198	2	8614263	1	6334	1	0	next
conjunction	positive	1	T_green	hit	J	5629	2	8645932	1	5667	1	0	next
conjunction	negative	5	Null	hit	F	6833	2	8676934	1	7000	1	0	next
conjunction	positive	15	T_green	hit	J	4850	2	8709269	1	5000	1	0	next
conjunction	positive	15	T_green	hit	J	12344	2	8739604	1	12501	1	0	next
conjunction	negative	1	Null	hit	F	5437	2	8777440	1	5500	1	0	next
conjunction	negative	1	Null	hit	F	5183	2	8808275	1	5334	1	0	next
conjunction	positive	15	T_green	hit	J	5014	2	8838944	1	5167	1	0	next
conjunction	positive	5	T_green	incorrect	F	6299	2	8869446	1	6334	1	0	next
conjunction	positive	5	T_green	hit	J	5440	2	8901115	1	5500	1	0	next
conjunction	negative	30	Null	incorrect	J	5129	2	8931950	1	5167	1	0	next
conjunction	negative	5	Null	hit	F	6777	2	8962452	1	6834	1	0	next
conjunction	negative	1	Null	hit	F	6637	2	8994621	1	6834	1	0	next
conjunction	positive	15	T_green	incorrect	F	9794	2	9026789	1	9834	1	0	next
conjunction	positive	30	T_green	hit	J	5582	2	9061958	1	5667	1	0	next
conjunction	negative	5	Null	hit	F	6301	2	9092960	1	6334	1	0	next
conjunction	positive	15	T_green	hit	J	5411	2	9124629	1	5500	1	0	next
conjunction	positive	1	T_green	hit	J	5827	2	9155464	1	6000	1	0	next
conjunction	positive	15	T_green	hit	J	4370	2	9186800	1	4500	1	0	next
conjunction	negative	1	Null	hit	F	5014	2	9216635	1	5167	1	0	next
conjunction	negative	5	Null	hit	F	7206	2	9247137	1	7334	1	0	next
conjunction	negative	15	Null	incorrect	J	9141	2	9279806	1	9334	1	0	next
conjunction	positive	1	T_green	incorrect	F	8078	2	9314474	1	8167	1	0	next
conjunction	positive	5	T_green	hit	J	7804	2	9347977	1	8001	1	0	next
conjunction	positive	15	T_green	hit	J	11761	2	9381312	1	11834	1	0	next
conjunction	positive	15	T_green	hit	J	5860	2	9418481	1	6000	1	0	next
conjunction	positive	15	T_green	hit	J	4000	2	9449816	1	4167	1	0	next
conjunction	positive	15	T_green	hit	J	4312	2	9479318	1	4500	1	0	next
conjunction	negative	1	Null	hit	F	7319	2	9509154	1	7500	1	0	next
conjunction	negative	1	Null	hit	F	4703	2	9541989	1	4834	1	0	next
conjunction	negative	15	Null	hit	F	9148	2	9572158	1	9334	1	0	next
conjunction	positive	1	T_green	hit	J	5190	2	9606827	1	5334	1	0	next
conjunction	positive	1	T_green	hit	J	4650	2	9637495	1	4834	1	0	next
conjunction	negative	5	Null	hit	F	7167	2	9667664	1	7334	1	0	next
conjunction	negative	5	Null	hit	F	6554	2	9700333	1	6667	1	0	next
conjunction	positive	30	T_green	incorrect	F	14747	2	9732335	1	14834	1	0	next
conjunction	positive	15	T_green	hit	J	13796	2	9772504	1	14001	1	0	next
conjunction	positive	30	T_green	hit	J	6079	2	9811840	1	6167	1	0	next
conjunction	negative	5	Null	hit	F	7046	2	9843342	1	7167	1	0	next
conjunction	negative	5	Null	hit	F	6443	2	9875844	1	6500	1	0	next
conjunction	negative	1	Null	incorrect	J	6942	2	9907679	1	7000	1	0	next
conjunction	positive	1	T_green	hit	J	4590	2	9940015	1	4667	1	0	next
conjunction	positive	15	T_green	hit	J	6232	2	9970017	1	6334	1	0	next
conjunction	negative	1	Null	hit	F	7386	2	10001685	1	7501	1	0	next
conjunction	negative	1	Null	hit	F	7026	2	10034521	1	7167	1	0	next
conjunction	positive	1	T_green	hit	J	6527	2	10067023	1	6667	1	0	next
conjunction	positive	15	T_green	hit	J	6102	2	10099025	1	6167	1	0	next
conjunction	negative	1	Null	hit	F	5990	2	10130527	1	6167	1	0	next
conjunction	negative	5	Null	hit	F	6589	2	10162029	1	6667	1	0	next
conjunction	positive	5	T_green	hit	J	4978	2	10194031	1	5167	1	0	next
conjunction	negative	5	Null	hit	F	6198	2	10224533	1	6334	1	0	next
conjunction	negative	30	Null	incorrect	J	6836	2	10256202	1	7000	1	0	next
conjunction	negative	30	Null	hit	F	11224	2	10288537	1	11334	1	0	next
conjunction	positive	30	T_green	hit	J	10775	2	10325206	1	10834	1	0	next
conjunction	positive	15	T_green	hit	J	5776	2	10361375	1	5834	1	0	next
conjunction	positive	1	T_green	hit	J	4417	2	10392544	1	4500	1	0	next
conjunction	negative	1	Null	hit	F	5981	2	10422379	1	6167	1	0	next
conjunction	negative	5	Null	hit	F	6585	2	10453881	1	6667	1	0	next
conjunction	positive	1	T_green	hit	J	4806	2	10485883	1	5000	1	0	next
conjunction	positive	5	T_green	hit	J	6439	2	10516218	1	6500	1	0	next
conjunction	positive	1	T_green	hit	J	5343	2	10548054	1	5500	1	0	next
conjunction	positive	30	T_green	hit	J	13399	2	10578889	1	13501	1	0	next
conjunction	positive	30	T_green	hit	J	5774	2	10617725	1	5834	1	0	next
conjunction	negative	5	Null	hit	F	7466	2	10648893	1	7501	1	0	next
conjunction	negative	15	Null	hit	F	15443	2	10681729	1	15501	1	0	next
conjunction	negative	5	Null	hit	F	9408	2	10722565	1	9501	1	0	next
conjunction	negative	1	Null	hit	F	5747	2	10757400	1	5834	1	0	next
conjunction	positive	1	T_green	hit	J	5701	2	10788569	1	5834	1	0	next
conjunction	negative	1	Null	hit	F	7021	2	10819738	1	7167	1	0	next
conjunction	positive	30	T_green	hit	J	9493	2	10852240	1	9667	1	0	next
conjunction	negative	15	Null	hit	F	7427	2	10887242	1	7500	1	0	next
conjunction	negative	15	Null	hit	F	7703	2	10920078	1	7834	1	0	next
conjunction	negative	5	Null	hit	F	6117	2	10953246	1	6167	1	0	next
conjunction	positive	1	T_green	hit	J	4643	2	10984748	1	4834	1	0	next
conjunction	negative	30	Null	incorrect	J	6211	2	11014917	1	6334	1	0	next
conjunction	negative	5	Null	hit	F	5715	2	11046586	1	5834	1	0	next
conjunction	negative	5	Null	hit	F	6208	2	11077754	1	6334	1	0	next
conjunction	positive	15	T_green	incorrect	F	7074	2	11109423	1	7167	1	0	next
conjunction	negative	30	Null	incorrect	J	6545	2	11141925	1	6667	1	0	next
conjunction	negative	30	Null	hit	F	10486	2	11173927	1	10667	1	0	next
conjunction	positive	1	T_green	hit	J	5255	2	11209929	1	5334	1	0	next
conjunction	positive	1	T_green	hit	J	4580	2	11240598	1	4667	1	0	next
conjunction	negative	1	Null	hit	F	5429	2	11270600	1	5500	1	0	next
conjunction	positive	30	T_green	hit	J	10315	2	11301435	1	10501	1	0	next
conjunction	negative	30	Null	hit	F	12854	2	11337271	1	13001	1	0	next
conjunction	positive	5	T_green	hit	J	5055	2	11375607	1	5167	1	0	next
conjunction	negative	15	Null	hit	F	6291	2	11406109	1	6334	1	0	next
conjunction	positive	1	T_green	hit	J	4622	2	11437777	1	4667	1	0	next
conjunction	negative	15	Null	hit	F	9510	2	11467779	1	9667	1	0	next
conjunction	positive	30	T_green	hit	J	6760	2	11502782	1	6834	1	0	next
conjunction	negative	15	Null	hit	F	6274	2	11534950	1	6334	1	0	next
conjunction	positive	1	T_green	hit	J	4184	2	11566619	1	4334	1	0	next
conjunction	positive	30	T_green	hit	J	7017	2	11596288	1	7167	1	0	next
conjunction	positive	5	T_green	hit	J	6645	2	11628790	1	6834	1	0	next
conjunction	positive	30	T_green	hit	J	7909	2	11660958	1	8001	1	0	next
conjunction	negative	15	Null	hit	F	8174	2	11694294	1	8334	1	0	next
conjunction	positive	30	T_green	incorrect	F	10221	2	11727963	1	10334	1	0	next
conjunction	positive	30	T_green	hit	J	12027	2	11763632	1	12167	1	0	next
conjunction	negative	15	Null	hit	F	9501	2	11801134	1	9667	1	0	next
conjunction	negative	15	Null	hit	F	7712	2	11836136	1	7834	1	0	next
conjunction	positive	30	T_green	incorrect	F	9493	2	11869305	1	9667	1	0	next
conjunction	positive	5	T_green	hit	J	5140	2	11904307	1	5334	1	0	next
conjunction	positive	30	T_green	hit	J	11182	2	11934976	1	11334	1	0	next
conjunction	negative	15	Null	hit	F	6954	2	11971645	1	7000	1	0	next
conjunction	negative	15	Null	hit	F	7832	2	12003980	1	8001	1	0	next
conjunction	negative	15	Null	hit	F	5968	2	12037316	1	6000	1	0	next
conjunction	positive	5	T_green	hit	J	5517	2	12068651	1	5667	1	0	next
conjunction	negative	30	Null	hit	F	7021	2	12099653	1	7167	1	0	next
conjunction	negative	30	Null	hit	F	9036	2	12132155	1	9167	1	0	next
conjunction	positive	5	T_green	hit	J	5812	2	12166658	1	6000	1	0	next
conjunction	negative	15	Null	hit	F	5704	2	12197993	1	5834	1	0	next
conjunction	negative	30	Null	hit	F	7683	2	12229162	1	7834	1	0	next
conjunction	negative	1	Null	hit	F	8727	2	12262330	1	8834	1	0	next
conjunction	positive	5	T_green	hit	J	8341	2	12296499	1	8500	1	0	next
conjunction	negative	30	Null	hit	F	8749	2	12330335	1	8834	1	0	next
conjunction	negative	1	Null	hit	F	6305	2	12364504	1	6500	1	0	next
conjunction	negative	30	Null	hit	F	9379	2	12396339	1	9501	1	0	next
conjunction	positive	5	T_green	hit	J	5980	2	12431175	1	6167	1	0	next
conjunction	positive	5	T_green	hit	J	4440	2	12462677	1	4500	1	0	next
conjunction	positive	5	T_green	hit	J	4385	2	12492512	1	4500	1	0	next
conjunction	negative	30	Null	hit	F	7843	2	12522347	1	8001	1	0	next
conjunction	negative	30	Null	hit	F	15272	2	12555682	1	15334	1	0	next
conjunction	negative	30	Null	hit	F	6992	2	12596352	1	7167	1	0	next
conjunction	negative	30	Null	hit	F	5887	2	12628854	1	6000	1	0	next
disjunction	positive	1	T_blue	hit	J	4172	2	12670190	1	4334	1	0	next
disjunction	positive	30	T_blue	hit	J	4454	2	12699858	1	4500	1	0	next
disjunction	negative	5	Null	hit	F	5699	2	12729694	1	5834	1	0	next
disjunction	positive	1	X_blue	hit	J	4132	2	12760862	1	4167	1	0	next
disjunction	negative	30	Null	hit	F	8075	2	12790364	1	8167	1	0	next
disjunction	positive	15	S_green	hit	J	10539	2	12823866	1	10667	1	0	next
disjunction	positive	1	S_green	hit	J	4586	2	12859869	1	4667	1	0	next
disjunction	negative	30	Null	hit	F	11052	2	12889871	1	11167	1	0	next
disjunction	positive	1	S_green	hit	J	6583	2	12926373	1	6667	1	0	next
disjunction	positive	15	T_blue	hit	J	4243	2	12958375	1	4334	1	0	next
disjunction	positive	15	S_brown	hit	J	13108	2	12988044	1	13167	1	0	next
disjunction	negative	30	Null	hit	F	11248	2	13026546	1	11334	1	0	next
disjunction	positive	1	S_brown	hit	J	5101	2	13063215	1	5167	1	0	next
disjunction	negative	15	Null	hit	F	7119	2	13093717	1	7167	1	0	next
disjunction	negative	15	Null	hit	F	9734	2	13126219	1	9834	1	0	next
disjunction	positive	30	S_brown	hit	J	5877	2	13161388	1	6000	1	0	next
disjunction	positive	15	T_blue	hit	J	5885	2	13192723	1	6000	1	0	next
disjunction	negative	5	Null	hit	F	7243	2	13224059	1	7334	1	0	next
disjunction	negative	15	Null	hit	F	8920	2	13256728	1	9001	1	0	next
disjunction	positive	30	S_green	hit	J	6528	2	13291063	1	6667	1	0	next
disjunction	negative	5	Null	hit	F	6334	2	13323065	1	6500	1	0	next
disjunction	negative	1	Null	hit	F	7920	2	13354900	1	8000	1	0	next
disjunction	positive	5	T_blue	hit	J	4919	2	13388236	1	5000	1	0	next
disjunction	negative	30	Null	hit	F	6875	2	13418571	1	7000	1	0	next
disjunction	negative	30	Null	hit	F	6679	2	13450907	1	6834	1	0	next
disjunction	negative	5	Null	hit	F	7122	2	13483075	1	7167	1	0	next
disjunction	negative	15	Null	hit	F	7941	2	13515578	1	8000	1	0	next
disjunction	negative	5	Null	hit	F	4686	2	13548913	1	4834	1	0	next
disjunction	negative	15	Null	hit	F	5564	2	13579082	1	5667	1	0	next
disjunction	positive	1	T_blue	hit	J	3940	2	13610084	1	4000	1	0	next
disjunction	positive	15	X_blue	hit	J	4496	2	13639419	1	4667	1	0	next
disjunction	positive	15	X_blue	hit	J	4018	2	13669421	1	4167	1	0	next
disjunction	positive	15	S_green	hit	J	5294	2	13698923	1	5334	1	0	next
disjunction	negative	15	Null	hit	F	6127	2	13729591	1	6167	1	0	next
disjunction	negative	30	Null	hit	F	7519	2	13761093	1	7667	1	0	next
disjunction	positive	30	S_green	incorrect	F	6537	2	13794095	1	6667	1	0	next
disjunction	positive	30	X_blue	hit	J	5338	2	13826097	1	5500	1	0	next
disjunction	positive	15	S_brown	hit	J	7121	2	13856933	1	7167	1	0	next
disjunction	negative	15	Null	hit	F	9160	2	13889435	1	9334	1	0	next
disjunction	positive	30	T_blue	hit	J	4498	2	13924104	1	4667	1	0	next
disjunction	positive	5	S_brown	hit	J	5478	2	13954106	1	5667	1	0	next
disjunction	negative	1	Null	hit	F	9227	2	13985108	1	9334	1	0	next
disjunction	negative	5	Null	hit	F	7951	2	14019776	1	8001	1	0	next
disjunction	negative	1	Null	hit	F	5861	2	14053112	1	6000	1	0	next
disjunction	negative	15	Null	hit	F	7255	2	14084447	1	7334	1	0	next
disjunction	negative	15	Null	hit	F	8089	2	14117116	1	8167	1	0	next
disjunction	negative	15	Null	hit	F	5389	2	14150618	1	5500	1	0	next
disjunction	positive	30	S_green	hit	J	6357	2	14181454	1	6501	1	0	next
disjunction	negative	15	Null	hit	F	5650	2	14213289	1	5834	1	0	next
disjunction	negative	1	Null	hit	F	7862	2	14244458	1	8000	1	0	next
disjunction	negative	5	Null	hit	F	6676	2	14277793	1	6834	1	0	next
disjunction	negative	30	Null	hit	F	4827	2	14309962	1	5000	1	0	next
disjunction	positive	15	S_green	hit	J	6269	2	14340297	1	6334	1	0	next
disjunction	negative	5	Null	hit	F	6170	2	14371966	1	6334	1	0	next
disjunction	positive	30	S_brown	hit	J	5439	2	14403634	1	5500	1	0	next
disjunction	positive	5	S_brown	hit	J	6112	2	14434470	1	6167	1	0	next
disjunction	negative	1	Null	hit	F	6028	2	14465972	1	6167	1	0	next
disjunction	positive	30	X_blue	hit	J	5002	2	14497474	1	5167	1	0	next
disjunction	negative	1	Null	hit	F	6017	2	14527976	1	6167	1	0	next
disjunction	negative	5	Null	hit	F	6002	2	14559478	1	6167	1	0	next
disjunction	negative	30	Null	hit	F	9599	2	14590980	1	9667	1	0	next
disjunction	positive	30	T_blue	hit	J	6907	2	14625982	1	7000	1	0	next
disjunction	negative	5	Null	hit	F	5829	2	14658317	1	6000	1	0	next
disjunction	positive	15	T_blue	hit	J	4875	2	14689653	1	5000	1	0	next
disjunction	positive	30	T_blue	hit	J	5331	2	14719988	1	5500	1	0	next
disjunction	positive	5	S_green	hit	J	4875	2	14750823	1	5000	1	0	next
disjunction	negative	5	Null	hit	F	5976	2	14781159	1	6167	1	0	next
disjunction	positive	5	T_blue	hit	J	5106	2	14812661	1	5167	1	0	next
disjunction	positive	15	T_blue	hit	J	5529	2	14843163	1	5667	1	0	next
disjunction	positive	15	S_green	hit	J	5522	2	14874165	1	5667	1	0	next
disjunction	positive	30	T_blue	hit	J	7339	2	14905167	1	7500	1	0	next
disjunction	positive	1	X_blue	hit	J	4017	2	14938002	1	4167	1	0	next
disjunction	positive	30	T_blue	hit	J	4659	2	14967504	1	4834	1	0	next
disjunction	positive	15	X_blue	hit	J	4525	2	14997673	1	4667	1	0	next
disjunction	negative	1	Null	hit	F	5981	2	15027675	1	6167	1	0	next
disjunction	positive	15	X_blue	hit	J	4560	2	15059177	1	4667	1	0	next
disjunction	positive	5	X_blue	hit	J	4174	2	15089179	1	4334	1	0	next
disjunction	positive	30	S_brown	hit	J	6618	2	15118847	1	6667	1	0	next
disjunction	negative	5	Null	hit	F	4985	2	15150849	1	5167	1	0	next
disjunction	positive	15	X_blue	hit	J	4174	2	15181351	1	4334	1	0	next
disjunction	positive	30	S_green	incorrect	F	5934	2	15211020	1	6000	1	0	next
disjunction	positive	1	T_blue	hit	J	4537	2	15242355	1	4667	1	0	next
disjunction	positive	15	T_blue	hit	J	4411	2	15272357	1	4500	1	0	next
disjunction	negative	5	Null	hit	F	4934	2	15302192	1	5000	1	0	next
disjunction	negative	5	Null	hit	F	5312	2	15332527	1	5500	1	0	next
disjunction	negative	5	Null	hit	F	7088	2	15363363	1	7167	1	0	next
disjunction	positive	1	X_blue	hit	J	4313	2	15395865	1	4500	1	0	next
disjunction	negative	5	Null	hit	F	5624	2	15425700	1	5667	1	0	next
disjunction	negative	15	Null	hit	F	6774	2	15456702	1	6834	1	0	next
disjunction	positive	5	X_blue	hit	J	4318	2	15488871	1	4500	1	0	next
disjunction	positive	1	X_blue	hit	J	3770	2	15518706	1	3834	1	0	next
disjunction	negative	15	Null	hit	F	7625	2	15547875	1	7667	1	0	next
disjunction	negative	1	Null	hit	F	4143	2	15580877	1	4334	1	0	next
disjunction	negative	15	Null	hit	F	4533	2	15610545	1	4667	1	0	next
disjunction	negative	30	Null	hit	F	6073	2	15640547	1	6167	1	0	next
disjunction	negative	1	Null	hit	F	5140	2	15672049	1	5334	1	0	next
disjunction	negative	1	Null	hit	F	5077	2	15702718	1	5167	1	0	next
disjunction	positive	5	S_green	hit	J	7027	2	15733220	1	7167	1	0	next
disjunction	negative	15	Null	hit	F	6840	2	15765722	1	7000	1	0	next
disjunction	negative	1	Null	hit	F	5610	2	15798057	1	5667	1	0	next
disjunction	positive	5	S_green	hit	J	5757	2	15829059	1	5834	1	0	next
disjunction	negative	30	Null	hit	F	11403	2	15860228	1	11501	1	0	next
disjunction	positive	5	S_brown	hit	J	4720	2	15897064	1	4834	1	0	next
disjunction	positive	5	S_green	hit	J	5177	2	15927232	1	5334	1	0	next
disjunction	negative	15	Null	hit	F	6210	2	15957901	1	6334	1	0	next
disjunction	positive	5	S_brown	hit	J	4239	2	15989570	1	4334	1	0	next
disjunction	negative	30	Null	hit	F	5837	2	16019238	1	6000	1	0	next
disjunction	positive	5	S_brown	hit	J	4738	2	16050574	1	4834	1	0	next
disjunction	negative	30	Null	hit	F	5706	2	16080742	1	5834	1	0	next
disjunction	positive	5	S_green	hit	J	8556	2	16111911	1	8667	1	0	next
disjunction	negative	30	Null	hit	F	6836	2	16145913	1	7000	1	0	next
disjunction	negative	30	Null	hit	F	6331	2	16178248	1	6500	1	0	next
disjunction	negative	1	Null	hit	F	9982	2	16210084	1	10167	1	0	next
disjunction	negative	30	Null	hit	F	5428	2	16245586	1	5500	1	0	next
disjunction	negative	30	Null	hit	F	5548	2	16276421	1	5667	1	0	next
disjunction	negative	1	Null	hit	F	5029	2	16307423	1	5167	1	0	next
disjunction	negative	1	Null	hit	F	11617	2	16337925	1	11667	1	0	next
disjunction	positive	30	X_blue	hit	J	5265	2	16374928	1	5334	1	0	next
disjunction	positive	1	X_blue	hit	J	8147	2	16405596	1	8334	1	0	next
disjunction	positive	1	S_brown	hit	J	4538	2	16439265	1	4667	1	0	next
disjunction	positive	1	S_green	hit	J	4858	2	16469267	1	5000	1	0	next
disjunction	negative	1	Null	incorrect	J	4307	2	16499602	1	4500	1	0	next
disjunction	negative	1	Null	hit	F	5507	2	16529438	1	5667	1	0	next
disjunction	positive	5	S_brown	hit	J	4929	2	16560440	1	5000	1	0	next
disjunction	positive	5	S_brown	hit	J	4643	2	16590775	1	4834	1	0	next
disjunction	positive	1	X_blue	hit	J	4177	2	16620943	1	4334	1	0	next
disjunction	positive	1	S_brown	hit	J	4987	2	16650612	1	5167	1	0	next
disjunction	positive	1	S_brown	hit	J	3427	2	16681114	1	3500	1	0	next
disjunction	negative	30	Null	hit	F	6570	2	16719283	1	6667	1	0	next
disjunction	positive	1	T_blue	hit	J	4147	2	16751285	1	4334	1	0	next
disjunction	positive	1	T_blue	hit	J	3534	2	16780954	1	3667	1	0	next
disjunction	positive	5	T_blue	hit	J	3375	2	16809956	1	3500	1	0	next
disjunction	positive	30	S_brown	hit	J	7147	2	16838791	1	7334	1	0	next
disjunction	positive	30	T_blue	hit	J	4006	2	16871460	1	4167	1	0	next
disjunction	positive	5	T_blue	hit	J	3676	2	16900961	1	3834	1	0	next
disjunction	positive	15	S_brown	hit	J	3510	2	16930130	1	3667	1	0	next
disjunction	negative	15	Null	hit	F	5997	2	16959132	1	6167	1	0	next
disjunction	positive	30	X_blue	hit	J	4079	2	16990634	1	4167	1	0	next
disjunction	positive	30	X_blue	hit	J	4206	2	17020136	1	4334	1	0	next
disjunction	negative	1	Null	hit	F	6014	2	17049804	1	6167	1	0	next
disjunction	positive	15	X_blue	hit	J	3651	2	17081306	1	3834	1	0	next
disjunction	negative	15	Null	hit	F	6010	2	17110475	1	6167	1	0	next
disjunction	positive	15	X_blue	hit	J	4243	2	17141977	1	4334	1	0	next
disjunction	negative	1	Null	hit	F	5502	2	17171646	1	5667	1	0	next
disjunction	positive	30	S_green	hit	J	5113	2	17202647	1	5167	1	0	next
disjunction	negative	30	Null	hit	F	5858	2	17233149	1	6000	1	0	next
disjunction	negative	1	Null	hit	F	7066	2	17264485	1	7167	1	0	next
disjunction	negative	15	Null	hit	F	6018	2	17296987	1	6167	1	0	next
disjunction	positive	30	S_brown	hit	J	6353	2	17328489	1	6500	1	0	next
disjunction	negative	15	Null	hit	F	6251	2	17360324	1	6334	1	0	next
disjunction	positive	1	S_green	hit	J	4516	2	17391993	1	4667	1	0	next
disjunction	positive	1	S_green	hit	J	4379	2	17421995	1	4500	1	0	next
disjunction	negative	15	Null	hit	F	5753	2	17451830	1	5834	1	0	next
disjunction	positive	5	T_blue	hit	J	5786	2	17482999	1	5834	1	0	next
disjunction	positive	30	S_brown	hit	J	6579	2	17514167	1	6667	1	0	next
disjunction	positive	5	S_green	hit	J	4417	2	17546169	1	4500	1	0	next
disjunction	negative	15	Null	hit	F	6714	2	17576005	1	6834	1	0	next
disjunction	positive	5	S_brown	hit	J	4630	2	17608173	1	4834	1	0	next
disjunction	positive	30	T_blue	hit	J	5282	2	17638342	1	5334	1	0	next
disjunction	positive	1	X_blue	hit	J	3977	2	17669011	1	4167	1	0	next
disjunction	negative	30	Null	hit	F	5480	2	17698513	1	5667	1	0	next
disjunction	positive	15	T_blue	hit	J	5173	2	17729515	1	5334	1	0	next
disjunction	negative	1	Null	hit	F	5012	2	17760183	1	5167	1	0	next
disjunction	negative	30	Null	hit	F	5554	2	17790685	1	5667	1	0	next
disjunction	positive	5	S_green	hit	J	4323	2	17821687	1	4500	1	0	next
disjunction	negative	15	Null	hit	F	5411	2	17851522	1	5500	1	0	next
disjunction	positive	30	S_green	hit	J	7097	2	17882358	1	7167	1	0	next
disjunction	positive	15	X_blue	hit	J	4587	2	17914860	1	4667	1	0	next
disjunction	negative	15	Null	hit	F	5230	2	17944862	1	5334	1	0	next
disjunction	negative	30	Null	hit	F	5906	2	17975530	1	6000	1	0	next
disjunction	positive	5	S_green	hit	J	5131	2	18006866	1	5167	1	0	next
disjunction	positive	5	T_blue	hit	J	4854	2	18037368	1	5000	1	0	next
disjunction	negative	1	Null	hit	F	6013	2	18067703	1	6167	1	0	next
disjunction	negative	1	Null	hit	F	5430	2	18099205	1	5500	1	0	next
disjunction	positive	30	X_blue	hit	J	4739	2	18130040	1	4834	1	0	next
disjunction	negative	30	Null	hit	F	5858	2	18160209	1	6000	1	0	next
disjunction	negative	15	Null	hit	F	7678	2	18191544	1	7834	1	0	next
disjunction	negative	15	Null	hit	F	5279	2	18224713	1	5334	1	0	next
disjunction	positive	5	S_brown	hit	J	5486	2	18255382	1	5667	1	0	next
disjunction	negative	15	Null	hit	F	5685	2	18286384	1	5834	1	0	next
disjunction	negative	15	Null	hit	F	5547	2	18317552	1	5667	1	0	next
disjunction	positive	15	S_green	hit	J	5742	2	18348554	1	5834	1	0	next
disjunction	positive	1	T_blue	hit	J	5533	2	18379723	1	5667	1	0	next
disjunction	positive	15	S_green	hit	J	4683	2	18410725	1	4834	1	0	next
disjunction	negative	15	Null	hit	F	5972	2	18440894	1	6167	1	0	next
disjunction	positive	15	X_blue	hit	J	4646	2	18472396	1	4834	1	0	next
disjunction	negative	1	Null	hit	F	5624	2	18502564	1	5667	1	0	next
disjunction	negative	30	Null	hit	F	7605	2	18533566	1	7667	1	0	next
disjunction	negative	30	Null	hit	F	6915	2	18566568	1	7000	1	0	next
disjunction	positive	1	T_blue	hit	J	4634	2	18598904	1	4834	1	0	next
disjunction	positive	30	S_brown	hit	J	8115	2	18629072	1	8167	1	0	next
disjunction	negative	15	Null	hit	F	7935	2	18662574	1	8001	1	0	next
disjunction	positive	5	S_brown	hit	J	4720	2	18695910	1	4834	1	0	next
disjunction	positive	30	S_green	hit	J	10756	2	18726079	1	10834	1	0	next
disjunction	negative	5	Null	hit	F	9747	2	18762248	1	9834	1	0	next
disjunction	negative	5	Null	hit	F	7256	2	18797417	1	7334	1	0	next
disjunction	positive	30	X_blue	hit	J	5577	2	18830085	1	5667	1	0	next
disjunction	positive	1	X_blue	incorrect	F	5218	2	18861087	1	5334	1	0	next
disjunction	negative	5	Null	hit	F	6438	2	18891756	1	6500	1	0	next
disjunction	positive	5	X_blue	hit	J	4322	2	18923591	1	4500	1	0	next
disjunction	positive	15	X_blue	hit	J	4357	2	18953426	1	4500	1	0	next
disjunction	negative	30	Null	hit	F	7768	2	18983262	1	7834	1	0	next
disjunction	negative	15	Null	hit	F	5326	2	19016431	1	5500	1	0	next
disjunction	negative	15	Null	hit	F	7997	2	19047266	1	8167	1	0	next
disjunction	negative	1	Null	hit	F	5373	2	19080768	1	5500	1	0	next
disjunction	positive	15	S_brown	hit	J	5956	2	19111603	1	6000	1	0	next
disjunction	positive	5	X_blue	hit	J	6092	2	19142939	1	6167	1	0	next
disjunction	negative	30	Null	hit	F	6083	2	19174441	1	6167	1	0	next
disjunction	negative	30	Null	hit	F	6057	2	19205943	1	6167	1	0	next
disjunction	negative	5	Null	hit	F	5480	2	19237445	1	5667	1	0	next
disjunction	negative	30	Null	hit	F	5914	2	19268447	1	6000	1	0	next
disjunction	positive	1	X_blue	hit	J	5348	2	19299782	1	5500	1	0	next
disjunction	negative	30	Null	hit	F	5543	2	19330617	1	5667	1	0	next
disjunction	negative	1	Null	hit	F	7017	2	19361619	1	7167	1	0	next
disjunction	negative	30	Null	hit	F	6179	2	19394121	1	6334	1	0	next
disjunction	positive	5	S_green	hit	J	7935	2	19425790	1	8001	1	0	next
disjunction	negative	5	Null	hit	F	6723	2	19459126	1	6834	1	0	next
disjunction	positive	1	S_brown	hit	J	4439	2	19491294	1	4500	1	0	next
disjunction	negative	5	Null	hit	F	4959	2	19521130	1	5000	1	0	next
disjunction	negative	1	Null	hit	F	8321	2	19551465	1	8501	1	0	next
disjunction	negative	30	Null	hit	F	10256	2	19585300	1	10334	1	0	next
disjunction	negative	5	Null	hit	F	6552	2	19620969	1	6667	1	0	next
disjunction	positive	5	T_blue	hit	J	4507	2	19652971	1	4667	1	0	next
disjunction	positive	5	T_blue	hit	J	6294	2	19682973	1	6334	1	0	next
disjunction	positive	5	S_brown	hit	J	6309	2	19714642	1	6500	1	0	next
disjunction	negative	5	Null	incorrect	J	6873	2	19746477	1	7001	1	0	next
disjunction	negative	30	Null	hit	F	8230	2	19778813	1	8334	1	0	next
disjunction	positive	1	S_green	hit	J	6173	2	19812482	1	6334	1	0	next
disjunction	positive	30	S_brown	hit	J	6676	2	19844150	1	6834	1	0	next
disjunction	negative	1	Null	hit	F	8064	2	19876319	1	8167	1	0	next
disjunction	positive	30	X_blue	hit	J	4957	2	19909821	1	5000	1	0	next
disjunction	negative	1	Null	hit	F	8765	2	19940156	1	8834	1	0	next
disjunction	negative	5	Null	hit	F	5469	2	19974325	1	5500	1	0	next
disjunction	negative	1	Null	hit	F	4934	2	20005161	1	5000	1	0	next
disjunction	positive	15	X_blue	hit	J	4772	2	20035496	1	4834	1	0	next
disjunction	positive	1	S_green	hit	J	5201	2	20065665	1	5334	1	0	next
disjunction	positive	15	T_blue	hit	J	5898	2	20096333	1	6000	1	0	next
disjunction	positive	15	S_brown	hit	J	5834	2	20127669	1	6000	1	0	next
disjunction	negative	5	Null	hit	F	6825	2	20159004	1	7000	1	0	next
disjunction	positive	1	T_blue	hit	J	5128	2	20191339	1	5167	1	0	next
disjunction	negative	5	Null	hit	F	6550	2	20221841	1	6667	1	0	next
disjunction	positive	1	S_brown	hit	J	4037	2	20253843	1	4167	1	0	next
disjunction	positive	15	T_blue	hit	J	5112	2	20283345	1	5167	1	0	next
disjunction	negative	1	Null	hit	F	5731	2	20313847	1	5834	1	0	next
disjunction	positive	15	S_brown	hit	J	5397	2	20345016	1	5500	1	0	next
disjunction	positive	15	S_green	incorrect	F	6804	2	20375851	1	7001	1	0	next
disjunction	positive	1	S_green	hit	J	4268	2	20408187	1	4334	1	0	next
disjunction	negative	5	Null	hit	F	5202	2	20437855	1	5334	1	0	next
disjunction	negative	5	Null	hit	F	5576	2	20468524	1	5667	1	0	next
disjunction	negative	1	Null	incorrect	J	5428	2	20499526	1	5500	1	0	next
disjunction	positive	1	S_green	hit	J	5089	2	20530361	1	5167	1	0	next
disjunction	negative	1	Null	hit	F	5255	2	20560863	1	5334	1	0	next
disjunction	negative	5	Null	hit	F	5679	2	20591532	1	5834	1	0	next
disjunction	positive	30	S_brown	incorrect	F	10454	2	20622700	1	10501	1	0	next
disjunction	negative	5	Null	hit	F	7042	2	20658536	1	7167	1	0	next
disjunction	negative	5	Null	hit	F	9945	2	20691038	1	10001	1	0	next
conjunction	positive	5	T_green	incorrect	F	5784	2	20738041	1	5834	1	0	next
conjunction	negative	15	Null	hit	F	9245	2	20769210	1	9334	1	0	next
conjunction	negative	5	Null	hit	F	5494	2	20803879	1	5667	1	0	next
conjunction	positive	1	T_green	incorrect	F	7429	2	20834881	1	7500	1	0	next
conjunction	negative	15	Null	hit	F	7482	2	20867716	1	7667	1	0	next
conjunction	positive	30	T_green	incorrect	F	9626	2	20900718	1	9667	1	0	next
conjunction	positive	5	T_green	hit	J	4756	2	20935720	1	4834	1	0	next
conjunction	positive	5	T_green	hit	J	5517	2	20965889	1	5667	1	0	next
conjunction	negative	30	Null	hit	F	9933	2	20996891	1	10001	1	0	next
conjunction	positive	5	T_green	hit	J	9938	2	21032227	1	10001	1	0	next
conjunction	positive	1	T_green	hit	J	4654	2	21067562	1	4834	1	0	next
conjunction	positive	5	T_green	hit	J	5353	2	21097731	1	5500	1	0	next
conjunction	positive	15	T_green	hit	J	4829	2	21128566	1	5000	1	0	next
conjunction	negative	15	Null	hit	F	8361	2	21158901	1	8501	1	0	next
conjunction	positive	5	T_green	hit	J	6527	2	21192737	1	6667	1	0	next
conjunction	positive	30	T_green	hit	J	6055	2	21224739	1	6167	1	0	next
conjunction	positive	15	T_green	hit	J	6337	2	21256241	1	6500	1	0	next
conjunction	positive	30	T_green	incorrect	F	12149	2	21288076	1	12334	1	0	next
conjunction	positive	30	T_green	hit	J	8527	2	21325745	1	8667	1	0	next
conjunction	negative	1	Null	incorrect	J	5363	2	21359748	1	5500	1	0	next
conjunction	positive	15	T_green	hit	J	5566	2	21390583	1	5667	1	0	next
conjunction	negative	5	Null	hit	F	5837	2	21421585	1	6000	1	0	next
conjunction	negative	15	Null	hit	F	9069	2	21452920	1	9167	1	0	next
conjunction	positive	15	T_green	hit	J	12801	2	21487422	1	12834	1	0	next
conjunction	positive	1	T_green	hit	J	5002	2	21525592	1	5167	1	0	next
conjunction	negative	15	Null	hit	F	7738	2	21556094	1	7834	1	0	next
conjunction	negative	1	Null	hit	F	7677	2	21589262	1	7834	1	0	next
conjunction	negative	1	Null	hit	F	6321	2	21622431	1	6500	1	0	next
conjunction	negative	15	Null	hit	F	10587	2	21654267	1	10667	1	0	next
conjunction	negative	15	Null	hit	F	9289	2	21690269	1	9334	1	0	next
conjunction	negative	5	Null	hit	F	5832	2	21724938	1	6000	1	0	next
conjunction	positive	1	T_green	hit	J	6068	2	21756273	1	6167	1	0	next
conjunction	positive	1	T_green	hit	J	4616	2	21787775	1	4667	1	0	next
conjunction	positive	30	T_green	hit	J	6368	2	21817777	1	6500	1	0	next
conjunction	positive	15	T_green	hit	J	5170	2	21849612	1	5334	1	0	next
conjunction	positive	1	T_green	hit	J	6090	2	21880281	1	6167	1	0	next
conjunction	negative	30	Null	hit	F	8907	2	21911783	1	9001	1	0	next
conjunction	positive	15	T_green	hit	J	5516	2	21946119	1	5667	1	0	next
conjunction	positive	15	T_green	hit	J	4770	2	21977121	1	4834	1	0	next
conjunction	positive	30	T_green	hit	J	5064	2	22007289	1	5167	1	0	next
conjunction	negative	1	Null	hit	F	6272	2	22037791	1	6334	1	0	next
conjunction	negative	5	Null	hit	F	7152	2	22069460	1	7334	1	0	next
conjunction	positive	5	T_green	hit	J	4834	2	22102129	1	5000	1	0	next
conjunction	negative	1	Null	hit	F	4526	2	22132464	1	4667	1	0	next
conjunction	negative	1	Null	hit	F	5099	2	22162466	1	5167	1	0	next
conjunction	negative	5	Null	hit	F	6160	2	22192968	1	6334	1	0	next
conjunction	positive	1	T_green	hit	J	5792	2	22224636	1	5834	1	0	next
conjunction	negative	1	Null	hit	F	5685	2	22255805	1	5834	1	0	next
conjunction	negative	15	Null	hit	F	8046	2	22286974	1	8167	1	0	next
conjunction	positive	5	T_green	hit	J	5584	2	22320476	1	5667	1	0	next
conjunction	negative	30	Null	hit	F	7902	2	22351478	1	8000	1	0	next
conjunction	negative	30	Null	hit	F	8050	2	22384813	1	8167	1	0	next
conjunction	negative	15	Null	hit	F	5980	2	22418316	1	6167	1	0	next
conjunction	negative	15	Null	hit	F	7084	2	22449818	1	7167	1	0	next
conjunction	positive	30	T_green	hit	J	6343	2	22482320	1	6500	1	0	next
conjunction	negative	15	Null	hit	F	7371	2	22514155	1	7501	1	0	next
conjunction	positive	30	T_green	hit	J	8663	2	22546990	1	8834	1	0	next
conjunction	negative	30	Null	hit	F	9776	2	22581159	1	9834	1	0	next
conjunction	negative	1	Null	hit	F	6022	2	22616328	1	6167	1	0	next
conjunction	positive	30	T_green	hit	J	6153	2	22647830	1	6334	1	0	next
conjunction	positive	5	T_green	hit	J	4823	2	22679499	1	5000	1	0	next
conjunction	positive	1	T_green	hit	J	4416	2	22709834	1	4500	1	0	next
conjunction	positive	15	T_green	hit	J	4476	2	22739669	1	4667	1	0	next
conjunction	negative	1	Null	hit	F	4588	2	22769671	1	4667	1	0	next
conjunction	positive	1	T_green	hit	J	4101	2	22799673	1	4167	1	0	next
conjunction	negative	5	Null	hit	F	5147	2	22829175	1	5334	1	0	next
conjunction	positive	15	T_green	hit	J	6489	2	22859844	1	6667	1	0	next
conjunction	negative	5	Null	hit	F	6766	2	22891846	1	6834	1	0	next
conjunction	positive	1	T_green	hit	J	5097	2	22924015	1	5167	1	0	next
conjunction	negative	15	Null	hit	F	5984	2	22954517	1	6167	1	0	next
conjunction	negative	5	Null	hit	F	7179	2	22986019	1	7334	1	0	next
conjunction	negative	15	Null	hit	F	6363	2	23018687	1	6500	1	0	next
conjunction	negative	5	Null	hit	F	5546	2	23050523	1	5667	1	0	next
conjunction	positive	5	T_green	hit	J	5537	2	23081525	1	5667	1	0	next
conjunction	negative	1	Null	hit	F	6218	2	23112527	1	6334	1	0	next
conjunction	positive	15	T_green	hit	J	13684	2	23144195	1	13834	1	0	next
conjunction	positive	1	T_green	hit	J	4213	2	23183365	1	4334	1	0	next
conjunction	positive	1	T_green	hit	J	3959	2	23213033	1	4000	1	0	next
conjunction	positive	5	T_green	hit	J	5070	2	23242368	1	5167	1	0	next
conjunction	positive	5	T_green	hit	J	5462	2	23272870	1	5500	1	0	next
conjunction	positive	1	T_green	hit	J	4625	2	23303706	1	4667	1	0	next
conjunction	positive	15	T_green	hit	J	5217	2	23333708	1	5334	1	0	next
conjunction	positive	1	T_green	hit	J	4407	2	23364376	1	4500	1	0	next
conjunction	positive	30	T_green	incorrect	F	9515	2	23394212	1	9667	1	0	next
conjunction	negative	30	Null	hit	F	8903	2	23429214	1	9001	1	0	next
conjunction	negative	15	Null	hit	F	7619	2	23463549	1	7667	1	0	next
conjunction	negative	1	Null	hit	F	10050	2	23496551	1	10167	1	0	next
conjunction	positive	15	T_green	hit	J	6244	2	23532054	1	6334	1	0	next
conjunction	positive	30	T_green	incorrect	F	10233	2	23563722	1	10334	1	0	next
conjunction	negative	15	Null	hit	F	8926	2	23599391	1	9001	1	0	next
conjunction	negative	15	Null	hit	F	9409	2	23633727	1	9501	1	0	next
conjunction	negative	5	Null	hit	F	5482	2	23668563	1	5667	1	0	next
conjunction	positive	15	T_green	hit	J	8052	2	23699564	1	8167	1	0	next
conjunction	negative	5	Null	hit	F	5679	2	23733067	1	5834	1	0	next
conjunction	negative	5	Null	hit	F	4709	2	23764235	1	4834	1	0	next
conjunction	negative	1	Null	hit	F	5208	2	23794404	1	5334	1	0	next
conjunction	positive	15	T_green	hit	J	5454	2	23825072	1	5500	1	0	next
conjunction	negative	5	Null	hit	F	6729	2	23855908	1	6834	1	0	next
conjunction	negative	30	Null	hit	F	8735	2	23888077	1	8834	1	0	next
conjunction	positive	1	T_green	hit	J	4966	2	23922245	1	5000	1	0	next
conjunction	positive	5	T_green	hit	J	5636	2	23952581	1	5667	1	0	next
conjunction	positive	5	T_green	hit	J	6217	2	23983583	1	6334	1	0	next
conjunction	negative	5	Null	hit	F	5879	2	24015251	1	6000	1	0	next
conjunction	negative	5	Null	hit	F	6200	2	24046587	1	6334	1	0	next
conjunction	negative	5	Null	hit	F	6288	2	24078256	1	6334	1	0	next
conjunction	positive	30	T_green	incorrect	F	8185	2	24109924	1	8334	1	0	next
conjunction	negative	1	Null	hit	F	6860	2	24143593	1	7000	1	0	next
conjunction	negative	1	Null	hit	F	11710	2	24175928	1	11834	1	0	next
conjunction	positive	30	T_green	hit	J	12171	2	24213097	1	12334	1	0	next
conjunction	positive	5	T_green	hit	J	6461	2	24250767	1	6500	1	0	next
conjunction	negative	1	Null	hit	F	6011	2	24282602	1	6167	1	0	next
conjunction	negative	30	Null	hit	F	8836	2	24314104	1	9001	1	0	next
conjunction	negative	1	Null	hit	F	5264	2	24348439	1	5334	1	0	next
conjunction	positive	1	T_green	hit	J	6494	2	24379108	1	6667	1	0	next
conjunction	negative	30	Null	incorrect	J	7518	2	24411110	1	7667	1	0	next
conjunction	positive	15	T_green	hit	J	6072	2	24444112	1	6167	1	0	next
conjunction	negative	30	Null	hit	F	10239	2	24475614	1	10334	1	0	next
conjunction	negative	30	Null	incorrect	J	8427	2	24511283	1	8500	1	0	next
conjunction	positive	30	T_green	incorrect	F	8734	2	24545119	1	8834	1	0	next
conjunction	positive	15	T_green	hit	J	7397	2	24579288	1	7500	1	0	next
conjunction	positive	30	T_green	hit	J	5476	2	24612123	1	5667	1	0	next
conjunction	positive	30	T_green	hit	J	11242	2	24643125	1	11334	1	0	next
conjunction	positive	5	T_green	hit	J	7971	2	24679794	1	8001	1	0	next
conjunction	negative	30	Null	incorrect	J	7325	2	24713130	1	7500	1	0	next
conjunction	negative	30	Null	hit	F	10472	2	24745965	1	10501	1	0	next
conjunction	negative	30	Null	hit	F	11747	2	24781801	1	11834	1	0	next
conjunction	negative	30	Null	hit	F	12182	2	24818970	1	12334	1	0	next
conjunction	negative	30	Null	hit	F	11598	2	24856639	1	11667	1	0	next
