Target_Type	Trial_Type	Display_Size	Target	Response	Key_press	RT	Uncertainty	Time	Uncertainty	Duration	Uncertainty	ReqTime	ReqDur
disjunction	positive	30	S_green	hit	J	14628	2	364745	1	14834	1	0	next
disjunction	negative	30	Null	hit	F	14461	2	404914	1	14668	1	0	next
disjunction	positive	5	S_brown	hit	J	10939	2	444916	1	11001	1	0	next
disjunction	negative	1	Null	hit	F	11724	2	481252	1	11834	1	0	next
disjunction	positive	30	S_green	hit	J	12796	2	518421	1	13001	1	0	next
disjunction	negative	5	Null	hit	F	9822	2	556757	1	10001	1	0	next
disjunction	positive	30	S_brown	hit	J	10487	2	592093	1	10667	1	0	next
disjunction	positive	15	S_brown	hit	J	10165	2	628095	1	10334	1	0	next
disjunction	positive	30	T_blue	hit	J	7458	2	663764	1	7501	1	0	next
disjunction	positive	5	T_blue	hit	J	17822	2	696600	1	18001	1	0	next
disjunction	positive	5	X_blue	hit	J	10968	2	739936	1	11167	1	0	next
disjunction	positive	5	T_blue	hit	J	4705	2	776438	1	4834	1	0	next
disjunction	positive	30	S_green	hit	J	10217	2	806607	1	10334	1	0	next
disjunction	positive	30	T_blue	hit	J	5110	2	842276	1	5167	1	0	next
disjunction	positive	15	S_brown	hit	J	7409	2	872778	1	7500	1	0	next
disjunction	negative	1	Null	hit	F	6414	2	905613	1	6500	1	0	next
disjunction	negative	15	Null	incorrect	J	9140	2	937448	1	9334	1	0	next
disjunction	negative	1	Null	hit	F	9511	2	972117	1	9667	1	0	next
disjunction	positive	15	T_blue	hit	J	4270	2	1007120	1	4334	1	0	next
disjunction	positive	15	S_green	hit	J	7882	2	1036788	1	8000	1	0	next
disjunction	positive	5	S_green	hit	J	5905	2	1070124	1	6000	1	0	next
disjunction	positive	5	S_green	hit	J	6573	2	1101459	1	6667	1	0	next
disjunction	negative	30	Null	incorrect	J	11053	2	1133461	1	11167	1	0	next
disjunction	negative	30	Null	hit	F	15029	2	1169963	1	15168	1	0	next
disjunction	positive	30	S_green	hit	J	6528	2	1210466	1	6667	1	0	next
disjunction	positive	15	S_brown	hit	J	8608	2	1242468	1	8667	1	0	next
disjunction	positive	15	S_brown	hit	J	5649	2	1276471	1	5834	1	0	next
disjunction	negative	1	Null	hit	F	7279	2	1307639	1	7334	1	0	next
disjunction	negative	30	Null	hit	F	12530	2	1340308	1	12668	1	0	next
disjunction	negative	5	Null	hit	F	11328	2	1378310	1	11501	1	0	next
disjunction	positive	1	S_brown	hit	J	6817	2	1415146	1	7000	1	0	next
disjunction	positive	15	S_green	hit	J	5359	2	1447482	1	5500	1	0	next
disjunction	positive	15	X_blue	hit	J	6844	2	1478317	1	7000	1	0	next
disjunction	positive	15	X_blue	hit	J	3471	2	1510652	1	3667	1	0	next
disjunction	positive	1	T_blue	hit	J	4550	2	1539654	1	4667	1	0	next
disjunction	negative	1	Null	hit	F	5749	2	1569656	1	5834	1	0	next
disjunction	negative	5	Null	incorrect	J	7380	2	1600825	1	7500	1	0	next
disjunction	positive	5	T_blue	hit	J	4146	2	1633660	1	4334	1	0	next
disjunction	positive	5	S_green	hit	J	6957	2	1663329	1	7000	1	0	next
disjunction	negative	5	Null	hit	F	10944	2	1695664	1	11001	1	0	next
disjunction	negative	15	Null	incorrect	J	5808	2	1732000	1	6000	1	0	next
disjunction	positive	1	T_blue	hit	J	3435	2	1763335	1	3500	1	0	next
disjunction	negative	15	Null	hit	F	7241	2	1792171	1	7334	1	0	next
disjunction	positive	5	S_brown	hit	J	12011	2	1824839	1	12167	1	0	next
disjunction	negative	5	Null	hit	F	13072	2	1862342	1	13167	1	0	next
disjunction	positive	15	X_blue	hit	J	6246	2	1900844	1	6334	1	0	next
disjunction	negative	15	Null	hit	F	8180	2	1932513	1	8334	1	0	next
disjunction	negative	1	Null	hit	F	9393	2	1966182	1	9501	1	0	next
disjunction	positive	15	S_green	hit	J	9279	2	2001017	1	9334	1	0	next
disjunction	negative	1	Null	hit	F	6770	2	2035686	1	6834	1	0	next
disjunction	positive	30	X_blue	hit	J	6122	2	2067855	1	6167	1	0	next
disjunction	negative	30	Null	hit	F	8701	2	2099357	1	8834	1	0	next
disjunction	positive	15	X_blue	hit	J	3654	2	2133526	1	3834	1	0	next
disjunction	negative	15	Null	hit	F	6008	2	2162695	1	6167	1	0	next
disjunction	negative	15	Null	hit	F	7305	2	2194197	1	7500	1	0	next
disjunction	positive	1	S_brown	hit	J	5990	2	2227032	1	6167	1	0	next
disjunction	negative	30	Null	hit	F	6010	2	2258534	1	6167	1	0	next
disjunction	negative	1	Null	incorrect	J	6668	2	2290036	1	6834	1	0	next
disjunction	negative	30	Null	hit	F	14660	2	2322205	1	14834	1	0	next
disjunction	positive	30	S_brown	hit	J	6174	2	2362374	1	6334	1	0	next
disjunction	positive	15	T_blue	hit	J	5701	2	2394043	1	5834	1	0	next
disjunction	positive	30	S_green	incorrect	F	11014	2	2425212	1	11167	1	0	next
disjunction	negative	5	Null	hit	F	10193	2	2461714	1	10334	1	0	next
disjunction	positive	1	T_blue	hit	J	18845	2	2497383	1	19001	1	0	next
disjunction	negative	1	Null	hit	F	9870	2	2541719	1	10001	1	0	next
disjunction	negative	1	Null	hit	F	8457	2	2577055	1	8500	1	0	next
disjunction	positive	5	X_blue	hit	J	5020	2	2610890	1	5167	1	0	next
disjunction	positive	15	X_blue	hit	J	6361	2	2641392	1	6500	1	0	next
disjunction	negative	30	Null	hit	F	13567	2	2673228	1	13668	1	0	next
disjunction	negative	15	Null	hit	F	11205	2	2712230	1	11334	1	0	next
disjunction	negative	15	Null	hit	F	15016	2	2748899	1	15168	1	0	next
disjunction	negative	15	Null	hit	F	7315	2	2789402	1	7500	1	0	next
disjunction	positive	15	X_blue	hit	J	5679	2	2822237	1	5834	1	0	next
disjunction	positive	15	S_brown	hit	J	9712	2	2853406	1	9834	1	0	next
disjunction	negative	5	Null	hit	F	8785	2	2888575	1	8834	1	0	next
disjunction	positive	1	T_blue	hit	J	6137	2	2922744	1	6334	1	0	next
disjunction	positive	5	X_blue	hit	J	4066	2	2954413	1	4167	1	0	next
disjunction	negative	30	Null	hit	F	8327	2	2983915	1	8501	1	0	next
disjunction	positive	30	X_blue	hit	J	4571	2	3017750	1	4667	1	0	next
disjunction	negative	1	Null	hit	F	6571	2	3047752	1	6667	1	0	next
disjunction	negative	15	Null	hit	F	5770	2	3079754	1	5834	1	0	next
disjunction	positive	30	S_green	incorrect	F	7082	2	3110923	1	7167	1	0	next
disjunction	positive	5	S_brown	hit	J	3382	2	3143425	1	3500	1	0	next
disjunction	negative	1	Null	hit	F	6864	2	3172260	1	7000	1	0	next
disjunction	negative	30	Null	hit	F	14212	2	3204596	1	14334	1	0	next
disjunction	negative	30	Null	hit	F	10863	2	3244265	1	11001	1	0	next
disjunction	positive	5	T_blue	hit	J	6210	2	3280600	1	6334	1	0	next
disjunction	negative	1	Null	hit	F	6702	2	3312269	1	6834	1	0	next
disjunction	negative	1	Null	hit	F	6852	2	3344438	1	7000	1	0	next
disjunction	positive	5	S_green	hit	J	5558	2	3376773	1	5667	1	0	next
disjunction	positive	30	S_brown	hit	J	7196	2	3407775	1	7334	1	0	next
disjunction	negative	15	Null	hit	F	12769	2	3440444	1	12834	1	0	next
disjunction	negative	5	Null	hit	F	8841	2	3478613	1	9001	1	0	next
disjunction	negative	30	Null	hit	F	10667	2	3512949	1	10834	1	0	next
disjunction	positive	5	S_brown	hit	J	6818	2	3549118	1	7000	1	0	next
disjunction	negative	5	Null	hit	F	6004	2	3581453	1	6167	1	0	next
disjunction	negative	5	Null	hit	F	6823	2	3612955	1	7000	1	0	next
disjunction	negative	30	Null	hit	F	13209	2	3645291	1	13334	1	0	next
disjunction	positive	5	X_blue	hit	J	5420	2	3683960	1	5500	1	0	next
disjunction	positive	30	T_blue	hit	J	5145	2	3714795	1	5334	1	0	next
disjunction	negative	30	Null	hit	F	6798	2	3745464	1	7000	1	0	next
disjunction	negative	30	Null	hit	F	6943	2	3777799	1	7000	1	0	next
disjunction	negative	30	Null	hit	F	8049	2	3810135	1	8167	1	0	next
disjunction	positive	1	S_brown	hit	J	5425	2	3843637	1	5500	1	0	next
disjunction	positive	30	S_green	hit	J	8512	2	3874472	1	8667	1	0	next
disjunction	positive	1	X_blue	hit	J	4911	2	3908474	1	5000	1	0	next
disjunction	positive	1	T_blue	hit	J	5297	2	3938810	1	5500	1	0	next
disjunction	negative	1	Null	hit	F	7743	2	3969645	1	7834	1	0	next
disjunction	positive	1	S_brown	hit	J	5614	2	4002814	1	5667	1	0	next
disjunction	negative	15	Null	hit	F	6773	2	4033816	1	6834	1	0	next
disjunction	positive	30	T_blue	hit	J	5806	2	4065985	1	6000	1	0	next
disjunction	positive	1	X_blue	hit	J	3751	2	4097320	1	3834	1	0	next
disjunction	negative	15	Null	hit	F	8022	2	4126489	1	8167	1	0	next
disjunction	positive	1	S_green	hit	J	4442	2	4159991	1	4500	1	0	next
disjunction	positive	1	S_green	hit	J	5167	2	4189826	1	5334	1	0	next
disjunction	negative	15	Null	hit	F	8259	2	4220495	1	8334	1	0	next
disjunction	positive	1	T_blue	hit	J	5310	2	4254164	1	5500	1	0	next
disjunction	negative	5	Null	hit	F	15117	2	4284999	1	15168	1	0	next
disjunction	positive	1	X_blue	hit	J	5975	2	4325502	1	6167	1	0	next
disjunction	negative	15	Null	hit	F	5995	2	4357004	1	6167	1	0	next
disjunction	negative	5	Null	hit	F	6971	2	4388506	1	7167	1	0	next
disjunction	negative	15	Null	hit	F	6792	2	4421008	1	6834	1	0	next
disjunction	positive	1	X_blue	hit	J	4862	2	4453177	1	5000	1	0	next
disjunction	negative	1	Null	hit	F	7329	2	4483512	1	7501	1	0	next
disjunction	negative	5	Null	hit	F	5534	2	4516347	1	5667	1	0	next
disjunction	negative	5	Null	hit	F	5894	2	4547349	1	6000	1	0	next
disjunction	negative	5	Null	hit	F	8477	2	4578685	1	8667	1	0	next
disjunction	negative	5	Null	hit	F	5995	2	4612687	1	6167	1	0	next
conjunction	negative	1	Null	hit	F	8601	2	4719527	1	8667	1	0	next
conjunction	negative	5	Null	hit	F	7397	2	4753529	1	7500	1	0	next
conjunction	negative	30	Null	hit	F	10081	2	4786365	1	10167	1	0	next
conjunction	negative	5	Null	hit	F	5463	2	4821867	1	5500	1	0	next
conjunction	positive	30	T_green	incorrect	F	5668	2	4852702	1	5834	1	0	next
conjunction	positive	5	T_green	incorrect	F	7298	2	4883871	1	7334	1	0	next
conjunction	positive	5	T_green	hit	J	6471	2	4916540	1	6667	1	0	next
conjunction	negative	30	Null	hit	F	14631	2	4948542	1	14668	1	0	next
conjunction	positive	1	T_green	hit	J	4869	2	4988545	1	5000	1	0	next
conjunction	negative	15	Null	hit	F	16455	2	5018880	1	16501	1	0	next
conjunction	negative	1	Null	incorrect	J	5660	2	5060716	1	5834	1	0	next
conjunction	negative	15	Null	hit	F	11292	2	5091885	1	11334	1	0	next
conjunction	negative	5	Null	hit	F	8384	2	5128554	1	8501	1	0	next
conjunction	negative	5	Null	hit	F	6712	2	5162389	1	6834	1	0	next
conjunction	positive	15	T_green	incorrect	F	13260	2	5194558	1	13334	1	0	next
conjunction	positive	30	T_green	hit	J	12033	2	5233227	1	12167	1	0	next
conjunction	negative	5	Null	hit	F	10052	2	5270730	1	10167	1	0	next
conjunction	negative	1	Null	hit	F	10711	2	5306232	1	10834	1	0	next
conjunction	positive	15	T_green	hit	J	8143	2	5342401	1	8334	1	0	next
conjunction	negative	30	Null	hit	F	19432	2	5376070	1	19501	1	0	next
conjunction	positive	1	T_green	hit	J	4839	2	5420906	1	5000	1	0	next
conjunction	positive	15	T_green	hit	J	16905	2	5451241	1	17001	1	0	next
conjunction	positive	5	T_green	hit	J	9929	2	5493577	1	10001	1	0	next
conjunction	negative	30	Null	hit	F	23873	2	5528913	1	24002	1	0	next
conjunction	negative	5	Null	hit	F	11342	2	5578250	1	11501	1	0	next
conjunction	negative	30	Null	hit	F	16746	2	5615085	1	16834	1	0	next
conjunction	positive	1	T_green	hit	J	7214	2	5657255	1	7334	1	0	next
conjunction	positive	15	T_green	hit	J	10708	2	5689923	1	10834	1	0	next
conjunction	negative	30	Null	hit	F	13581	2	5726092	1	13668	1	0	next
conjunction	positive	1	T_green	hit	J	6419	2	5765095	1	6500	1	0	next
conjunction	positive	30	T_green	hit	J	8505	2	5796930	1	8667	1	0	next
conjunction	positive	1	T_green	hit	J	5224	2	5830933	1	5334	1	0	next
conjunction	negative	30	Null	hit	F	16796	2	5861601	1	17001	1	0	next
conjunction	negative	15	Null	hit	F	11901	2	5903937	1	12001	1	0	next
conjunction	positive	1	T_green	hit	J	5606	2	5941273	1	5667	1	0	next
conjunction	negative	30	Null	hit	F	13004	2	5972275	1	13168	1	0	next
conjunction	negative	15	Null	hit	F	10503	2	6010778	1	10667	1	0	next
conjunction	positive	30	T_green	incorrect	F	10021	2	6046780	1	10167	1	0	next
conjunction	negative	5	Null	hit	F	10039	2	6082282	1	10167	1	0	next
conjunction	negative	5	Null	hit	F	14219	2	6117784	1	14334	1	0	next
conjunction	negative	1	Null	incorrect	J	4951	2	6157454	1	5000	1	0	next
conjunction	positive	5	T_green	hit	J	8214	2	6187789	1	8334	1	0	next
conjunction	negative	1	Null	hit	F	6867	2	6221458	1	7000	1	0	next
conjunction	positive	15	T_green	hit	J	9413	2	6253793	1	9501	1	0	next
conjunction	negative	15	Null	hit	F	10899	2	6288629	1	11001	1	0	next
conjunction	positive	5	T_green	hit	J	8644	2	6324965	1	8834	1	0	next
conjunction	negative	5	Null	hit	F	9676	2	6359133	1	9834	1	0	next
conjunction	negative	15	Null	hit	F	12749	2	6394302	1	12834	1	0	next
conjunction	positive	30	T_green	hit	J	8020	2	6432472	1	8167	1	0	next
conjunction	negative	1	Null	hit	F	7799	2	6465974	1	8001	1	0	next
conjunction	positive	30	T_green	hit	J	6944	2	6499309	1	7000	1	0	next
conjunction	positive	5	T_green	hit	J	10768	2	6531645	1	10834	1	0	next
conjunction	positive	5	T_green	hit	J	6601	2	6567814	1	6667	1	0	next
conjunction	negative	5	Null	hit	F	7079	2	6599816	1	7167	1	0	next
conjunction	negative	5	Null	hit	F	11379	2	6632318	1	11501	1	0	next
conjunction	positive	1	T_green	hit	J	12945	2	6669154	1	13001	1	0	next
conjunction	negative	15	Null	hit	F	13493	2	6707489	1	13668	1	0	next
conjunction	negative	5	Null	hit	F	8409	2	6746492	1	8501	1	0	next
conjunction	positive	1	T_green	hit	J	6734	2	6780328	1	6834	1	0	next
conjunction	positive	15	T_green	hit	J	7842	2	6812496	1	8000	1	0	next
conjunction	negative	1	Null	hit	F	8433	2	6845832	1	8501	1	0	next
conjunction	positive	15	T_green	hit	J	9797	2	6879667	1	9834	1	0	next
conjunction	positive	1	T_green	hit	J	5509	2	6914836	1	5667	1	0	next
conjunction	positive	30	T_green	hit	J	17708	2	6945838	1	17835	1	0	next
conjunction	positive	1	T_green	hit	J	5578	2	6989008	1	5667	1	0	next
conjunction	positive	15	T_green	hit	J	6896	2	7020010	1	7000	1	0	next
conjunction	negative	1	Null	hit	F	8162	2	7052345	1	8334	1	0	next
conjunction	negative	30	Null	hit	F	18493	2	7086014	1	18668	1	0	next
conjunction	positive	5	T_green	hit	J	6812	2	7130017	1	7000	1	0	next
conjunction	negative	30	Null	hit	F	10958	2	7162352	1	11001	1	0	next
conjunction	positive	30	T_green	hit	J	10944	2	7198688	1	11001	1	0	next
conjunction	negative	30	Null	hit	F	13649	2	7235023	1	13835	1	0	next
conjunction	positive	30	T_green	hit	J	11761	2	7274193	1	11834	1	0	next
conjunction	negative	15	Null	hit	F	8351	2	7311362	1	8501	1	0	next
conjunction	positive	15	T_green	hit	J	5559	2	7345197	1	5667	1	0	next
conjunction	positive	30	T_green	incorrect	F	15837	2	7376200	1	16001	1	0	next
conjunction	positive	5	T_green	hit	J	5699	2	7417536	1	5834	1	0	next
conjunction	positive	30	T_green	hit	J	3974	2	7448704	1	4167	1	0	next
conjunction	positive	1	T_green	hit	J	4713	2	7478206	1	4834	1	0	next
conjunction	negative	5	Null	hit	F	7025	2	7508375	1	7167	1	0	next
conjunction	negative	30	Null	incorrect	J	5722	2	7540877	1	5834	1	0	next
conjunction	positive	30	T_green	hit	J	7036	2	7572045	1	7167	1	0	next
conjunction	positive	15	T_green	hit	J	6212	2	7604548	1	6334	1	0	next
conjunction	positive	15	T_green	hit	J	5747	2	7636216	1	5834	1	0	next
conjunction	positive	30	T_green	hit	J	5939	2	7667385	1	6000	1	0	next
conjunction	positive	5	T_green	hit	J	4841	2	7698720	1	5000	1	0	next
conjunction	negative	5	Null	hit	F	10028	2	7729056	1	10167	1	0	next
conjunction	negative	1	Null	hit	F	6047	2	7764558	1	6167	1	0	next
conjunction	positive	1	T_green	hit	J	5747	2	7796060	1	5834	1	0	next
conjunction	positive	5	T_green	hit	J	6581	2	7827229	1	6667	1	0	next
conjunction	positive	1	T_green	hit	J	5458	2	7859231	1	5500	1	0	next
conjunction	negative	1	Null	hit	F	6303	2	7890066	1	6500	1	0	next
conjunction	negative	15	Null	hit	F	17187	2	7921901	1	17335	1	0	next
conjunction	negative	5	Null	hit	F	7801	2	7964571	1	8000	1	0	next
conjunction	negative	5	Null	hit	F	7906	2	7997906	1	8001	1	0	next
conjunction	negative	30	Null	hit	F	14092	2	8031242	1	14168	1	0	next
conjunction	positive	30	T_green	hit	J	9150	2	8070744	1	9334	1	0	next
conjunction	negative	15	Null	hit	F	11282	2	8105413	1	11334	1	0	next
conjunction	negative	1	Null	hit	F	5974	2	8142083	1	6167	1	0	next
conjunction	positive	1	T_green	hit	J	5833	2	8173585	1	6000	1	0	next
conjunction	positive	5	T_green	hit	J	5698	2	8204920	1	5834	1	0	next
conjunction	positive	5	T_green	hit	J	6849	2	8236089	1	7000	1	0	next
conjunction	negative	15	Null	hit	F	10676	2	8268424	1	10834	1	0	next
conjunction	negative	15	Null	hit	F	10828	2	8304593	1	11001	1	0	next
conjunction	positive	30	T_green	hit	J	9373	2	8340929	1	9501	1	0	next
conjunction	positive	1	T_green	hit	J	5098	2	8375764	1	5167	1	0	next
conjunction	positive	5	T_green	hit	J	5956	2	8406266	1	6000	1	0	next
conjunction	positive	15	T_green	hit	J	9823	2	8437602	1	10001	1	0	next
conjunction	positive	5	T_green	hit	J	5528	2	8472937	1	5667	1	0	next
conjunction	negative	1	Null	hit	F	7806	2	8503939	1	8001	1	0	next
conjunction	positive	5	T_green	hit	J	10631	2	8537275	1	10834	1	0	next
conjunction	negative	1	Null	hit	F	8863	2	8573444	1	9001	1	0	next
conjunction	positive	1	T_green	hit	J	5888	2	8607779	1	6000	1	0	next
conjunction	positive	15	T_green	hit	J	6717	2	8639115	1	6834	1	0	next
conjunction	negative	30	Null	hit	F	17586	2	8671284	1	17668	1	0	next
conjunction	negative	1	Null	hit	F	6745	2	8714286	1	6834	1	0	next
conjunction	negative	30	Null	hit	F	12016	2	8746455	1	12168	1	0	next
conjunction	positive	15	T_green	hit	J	6354	2	8783957	1	6501	1	0	next
conjunction	negative	30	Null	hit	F	18042	2	8815793	1	18168	1	0	next
conjunction	negative	1	Null	hit	F	6700	2	8859296	1	6834	1	0	next
conjunction	positive	15	T_green	hit	J	5731	2	8891464	1	5834	1	0	next
conjunction	positive	30	T_green	hit	J	5922	2	8922633	1	6000	1	0	next
conjunction	negative	1	Null	hit	F	6429	2	8953968	1	6500	1	0	next
conjunction	positive	15	T_green	hit	J	6273	2	8985804	1	6334	1	0	next
conjunction	negative	15	Null	hit	F	8846	2	9017473	1	9001	1	0	next
conjunction	negative	15	Null	hit	F	12752	2	9051808	1	12834	1	0	next
conjunction	negative	15	Null	hit	F	9464	2	9089977	1	9501	1	0	next
conjunction	negative	15	Null	hit	F	8228	2	9124813	1	8334	1	0	next
conjunction	negative	5	Null	hit	F	7800	2	9183483	1	8001	1	0	next
conjunction	positive	30	T_green	hit	J	17984	2	9216819	1	18168	1	0	next
conjunction	negative	1	Null	hit	F	7283	2	9260322	1	7334	1	0	next
conjunction	positive	15	T_green	hit	J	10293	2	9292990	1	10334	1	0	next
conjunction	negative	15	Null	hit	F	12226	2	9328659	1	12334	1	0	next
conjunction	positive	1	T_green	hit	J	6402	2	9366329	1	6500	1	0	next
conjunction	positive	5	T_green	hit	J	5125	2	9398164	1	5167	1	0	next
conjunction	negative	15	Null	hit	F	13341	2	9428666	1	13501	1	0	next
conjunction	negative	1	Null	hit	F	10829	2	9467502	1	11001	1	0	next
conjunction	negative	15	Null	hit	F	9533	2	9503837	1	9667	1	0	next
conjunction	negative	30	Null	hit	F	9733	2	9538840	1	9834	1	0	next
conjunction	positive	1	T_green	hit	J	5926	2	9574009	1	6000	1	0	next
conjunction	negative	1	Null	hit	F	6271	2	9605344	1	6334	1	0	next
conjunction	positive	5	T_green	hit	J	5643	2	9637013	1	5834	1	0	next
conjunction	positive	5	T_green	hit	J	5354	2	9668182	1	5500	1	0	next
conjunction	positive	5	T_green	hit	J	7001	2	9699017	1	7167	1	0	next
conjunction	positive	30	T_green	hit	J	17217	2	9731519	1	17334	1	0	next
conjunction	negative	5	Null	hit	F	9751	2	9774188	1	9834	1	0	next
conjunction	positive	30	T_green	hit	J	6421	2	9809357	1	6500	1	0	next
conjunction	negative	1	Null	hit	F	7228	2	9841193	1	7334	1	0	next
conjunction	negative	30	Null	hit	F	17920	2	9873861	1	18001	1	0	next
conjunction	negative	15	Null	hit	F	7865	2	9917198	1	8001	1	0	next
conjunction	positive	1	T_green	incorrect	F	6850	2	9950533	1	7000	1	0	next
conjunction	negative	5	Null	hit	F	6995	2	9982869	1	7167	1	0	next
conjunction	positive	1	T_green	hit	J	5055	2	10015371	1	5167	1	0	next
conjunction	positive	30	T_green	hit	J	6232	2	10045873	1	6334	1	0	next
conjunction	negative	1	Null	hit	F	9925	2	10077541	1	10001	1	0	next
conjunction	negative	1	Null	hit	F	6108	2	10112877	1	6167	1	0	next
conjunction	negative	5	Null	hit	F	11248	2	10144379	1	11334	1	0	next
conjunction	negative	1	Null	hit	F	7061	2	10181048	1	7167	1	0	next
conjunction	negative	1	Null	hit	F	5280	2	10213550	1	5334	1	0	next
conjunction	positive	30	T_green	hit	J	10133	2	10244219	1	10334	1	0	next
conjunction	negative	5	Null	hit	F	6301	2	10279888	1	6334	1	0	next
conjunction	positive	15	T_green	hit	J	5996	2	10311557	1	6167	1	0	next
conjunction	positive	15	T_green	hit	J	5215	2	10343059	1	5334	1	0	next
conjunction	positive	15	T_green	hit	J	4947	2	10373727	1	5000	1	0	next
conjunction	negative	15	Null	hit	F	11253	2	10404063	1	11334	1	0	next
conjunction	negative	1	Null	hit	F	6903	2	10440732	1	7001	1	0	next
conjunction	negative	30	Null	hit	F	20490	2	10473067	1	20668	1	0	next
conjunction	negative	1	Null	hit	F	9847	2	10519070	1	10001	1	0	next
conjunction	positive	15	T_green	hit	J	9231	2	10554406	1	9334	1	0	next
conjunction	positive	5	T_green	hit	J	6245	2	10589075	1	6334	1	0	next
conjunction	negative	30	Null	hit	F	16658	2	10620743	1	16835	1	0	next
conjunction	positive	5	T_green	hit	J	6969	2	10662913	1	7167	1	0	next
conjunction	positive	30	T_green	hit	J	7910	2	10695415	1	8000	1	0	next
conjunction	negative	15	Null	hit	F	8973	2	10728750	1	9167	1	0	next
conjunction	negative	15	Null	hit	F	7272	2	10763253	1	7334	1	0	next
conjunction	positive	30	T_green	incorrect	F	8363	2	10795921	1	8501	1	0	next
conjunction	negative	30	Null	hit	F	22210	2	10829757	1	22335	1	0	next
conjunction	positive	30	T_green	hit	J	14221	2	10877427	1	14334	1	0	next
conjunction	positive	1	T_green	hit	J	5273	2	10917096	1	5334	1	0	next
conjunction	negative	5	Null	hit	F	8202	2	10947764	1	8334	1	0	next
conjunction	positive	15	T_green	hit	J	15496	2	10981433	1	15668	1	0	next
conjunction	positive	15	T_green	hit	J	6816	2	11022436	1	7000	1	0	next
conjunction	positive	30	T_green	hit	J	9519	2	11054771	1	9667	1	0	next
conjunction	negative	1	Null	hit	F	8599	2	11089774	1	8667	1	0	next
conjunction	negative	15	Null	hit	F	10118	2	11123776	1	10167	1	0	next
conjunction	positive	5	T_green	hit	J	6617	2	11159278	1	6667	1	0	next
conjunction	negative	1	Null	hit	F	7416	2	11191280	1	7500	1	0	next
conjunction	positive	5	T_green	hit	J	5461	2	11224116	1	5500	1	0	next
conjunction	negative	1	Null	hit	F	6148	2	11254951	1	6334	1	0	next
conjunction	positive	1	T_green	hit	J	4878	2	11286620	1	5000	1	0	next
conjunction	positive	15	T_green	hit	J	7503	2	11316955	1	7667	1	0	next
conjunction	positive	5	T_green	hit	J	10022	2	11349957	1	10167	1	0	next
conjunction	positive	1	T_green	hit	J	5561	2	11385460	1	5667	1	0	next
conjunction	negative	1	Null	hit	F	7200	2	11416462	1	7334	1	0	next
conjunction	negative	30	Null	incorrect	J	5572	2	11449130	1	5667	1	0	next
conjunction	negative	30	Null	hit	F	13291	2	11480132	1	13334	1	0	next
conjunction	positive	5	T_green	hit	J	8863	2	11518802	1	9001	1	0	next
conjunction	positive	1	T_green	hit	J	4766	2	11553137	1	4834	1	0	next
conjunction	positive	15	T_green	hit	J	10759	2	11583306	1	10834	1	0	next
conjunction	positive	15	T_green	hit	J	5952	2	11619475	1	6000	1	0	next
conjunction	positive	1	T_green	hit	J	5016	2	11650810	1	5167	1	0	next
conjunction	positive	15	T_green	hit	J	5556	2	11681312	1	5667	1	0	next
conjunction	negative	1	Null	hit	F	7514	2	11712314	1	7667	1	0	next
conjunction	negative	5	Null	hit	F	9873	2	11745316	1	10001	1	0	next
conjunction	positive	5	T_green	hit	J	5900	2	11780652	1	6000	1	0	next
conjunction	negative	5	Null	hit	F	7045	2	11811987	1	7167	1	0	next
conjunction	positive	15	T_green	hit	J	10704	2	11844489	1	10834	1	0	next
conjunction	positive	5	T_green	hit	J	6054	2	11880658	1	6167	1	0	next
conjunction	positive	1	T_green	hit	J	5114	2	11912160	1	5167	1	0	next
conjunction	negative	1	Null	hit	F	6932	2	11942662	1	7000	1	0	next
conjunction	positive	5	T_green	hit	J	4677	2	11974998	1	4834	1	0	next
conjunction	positive	15	T_green	hit	J	9390	2	12005166	1	9501	1	0	next
conjunction	negative	15	Null	hit	F	11515	2	12040002	1	11667	1	0	next
conjunction	negative	30	Null	hit	F	16114	2	12077004	1	16168	1	0	next
conjunction	positive	30	T_green	hit	J	7733	2	12118507	1	7834	1	0	next
conjunction	positive	15	T_green	hit	J	5766	2	12151676	1	5834	1	0	next
conjunction	positive	15	T_green	hit	J	6276	2	12182845	1	6334	1	0	next
conjunction	positive	1	T_green	hit	J	5010	2	12214513	1	5167	1	0	next
conjunction	negative	15	Null	hit	F	11786	2	12245015	1	11834	1	0	next
conjunction	positive	1	T_green	hit	J	4700	2	12282184	1	4834	1	0	next
conjunction	positive	5	T_green	hit	J	5890	2	12312353	1	6000	1	0	next
conjunction	positive	1	T_green	hit	J	4637	2	12343688	1	4834	1	0	next
conjunction	positive	30	T_green	hit	J	6628	2	12373857	1	6667	1	0	next
conjunction	negative	30	Null	hit	F	16708	2	12405859	1	16834	1	0	next
conjunction	negative	15	Null	hit	F	10220	2	12448029	1	10334	1	0	next
conjunction	negative	5	Null	hit	F	7992	2	12483697	1	8167	1	0	next
conjunction	positive	1	T_green	hit	J	5690	2	12517200	1	5834	1	0	next
conjunction	positive	15	T_green	hit	J	5402	2	12548368	1	5500	1	0	next
conjunction	positive	30	T_green	hit	J	6087	2	12579204	1	6167	1	0	next
conjunction	positive	5	T_green	hit	J	4989	2	12610706	1	5167	1	0	next
conjunction	positive	30	T_green	hit	J	5685	2	12641208	1	5834	1	0	next
conjunction	positive	1	T_green	hit	J	5079	2	12672376	1	5167	1	0	next
conjunction	positive	30	T_green	hit	J	15215	2	12702878	1	15334	1	0	next
conjunction	positive	5	T_green	hit	J	4308	2	12743548	1	4500	1	0	next
conjunction	positive	30	T_green	hit	J	6794	2	12773383	1	6834	1	0	next
conjunction	positive	30	T_green	hit	J	8225	2	12805552	1	8334	1	0	next
conjunction	positive	1	T_green	hit	J	5278	2	12839221	1	5334	1	0	next
conjunction	negative	15	Null	hit	F	15731	2	12869889	1	15834	1	0	next
conjunction	negative	15	Null	hit	F	10882	2	12911059	1	11001	1	0	next
conjunction	negative	30	Null	hit	F	17268	2	12947394	1	17334	1	0	next
conjunction	negative	5	Null	hit	F	9479	2	12990064	1	9667	1	0	next
conjunction	negative	5	Null	hit	F	6638	2	13025066	1	6834	1	0	next
conjunction	negative	5	Null	hit	F	7428	2	13057235	1	7500	1	0	next
conjunction	negative	15	Null	hit	F	14435	2	13090070	1	14501	1	0	next
conjunction	negative	15	Null	hit	F	12519	2	13129906	1	12667	1	0	next
conjunction	negative	15	Null	hit	F	13239	2	13167909	1	13334	1	0	next
conjunction	negative	5	Null	hit	F	6408	2	13206578	1	6500	1	0	next
conjunction	negative	5	Null	hit	F	6415	2	13238413	1	6500	1	0	next
conjunction	negative	5	Null	hit	F	6098	2	13270249	1	6167	1	0	next
conjunction	negative	30	Null	hit	F	15718	2	13301751	1	15834	1	0	next
conjunction	negative	5	Null	hit	F	7351	2	13342920	1	7501	1	0	next
conjunction	negative	30	Null	hit	F	11475	2	13375755	1	11501	1	0	next
conjunction	negative	30	Null	hit	F	7921	2	13412591	1	8000	1	0	next
conjunction	negative	30	Null	hit	F	11386	2	13445927	1	11501	1	0	next
conjunction	negative	30	Null	hit	F	7031	2	13482762	1	7167	1	0	next
conjunction	negative	30	Null	hit	F	5412	2	13515264	1	5500	1	0	next
disjunction	negative	5	Null	hit	F	12577	2	13731945	1	12667	1	0	next
disjunction	positive	5	T_blue	hit	J	6735	2	13769948	1	6834	1	0	next
disjunction	negative	15	Null	hit	F	14088	2	13802116	1	14168	1	0	next
disjunction	negative	1	Null	incorrect	J	6107	2	13841619	1	6167	1	0	next
disjunction	positive	5	S_brown	hit	J	10606	2	13873121	1	10667	1	0	next
disjunction	negative	5	Null	hit	F	6440	2	13909123	1	6500	1	0	next
disjunction	positive	15	S_green	hit	J	12529	2	13940959	1	12668	1	0	next
disjunction	negative	30	Null	hit	F	17567	2	13978961	1	17668	1	0	next
disjunction	positive	5	T_blue	hit	J	5285	2	14021964	1	5334	1	0	next
disjunction	negative	30	Null	hit	F	21658	2	14052633	1	21835	1	0	next
disjunction	positive	1	S_green	hit	J	5689	2	14099802	1	5834	1	0	next
disjunction	negative	30	Null	hit	F	15642	2	14130971	1	15834	1	0	next
disjunction	negative	30	Null	hit	F	8554	2	14172140	1	8667	1	0	next
disjunction	positive	30	S_green	hit	J	8152	2	14206143	1	8334	1	0	next
disjunction	positive	1	S_brown	hit	J	5202	2	14239811	1	5334	1	0	next
disjunction	positive	15	S_green	hit	J	7656	2	14270480	1	7834	1	0	next
disjunction	negative	5	Null	hit	F	8089	2	14303649	1	8167	1	0	next
disjunction	negative	15	Null	hit	F	6586	2	14337151	1	6667	1	0	next
disjunction	negative	30	Null	hit	F	9466	2	14369153	1	9667	1	0	next
disjunction	negative	5	Null	hit	F	9823	2	14404155	1	10001	1	0	next
disjunction	negative	15	Null	hit	F	7608	2	14439491	1	7667	1	0	next
disjunction	positive	5	S_green	hit	J	7088	2	14472493	1	7167	1	0	next
disjunction	negative	1	Null	hit	F	7866	2	14504995	1	8001	1	0	next
disjunction	negative	5	Null	hit	F	7653	2	14538331	1	7834	1	0	next
disjunction	negative	5	Null	hit	F	7764	2	14571500	1	7834	1	0	next
disjunction	positive	1	X_blue	hit	J	6277	2	14604668	1	6334	1	0	next
disjunction	negative	5	Null	hit	F	6287	2	14636337	1	6334	1	0	next
disjunction	positive	1	S_green	hit	J	5343	2	14668006	1	5500	1	0	next
disjunction	negative	5	Null	hit	F	6024	2	14698841	1	6167	1	0	next
disjunction	negative	1	Null	hit	F	9725	2	14730343	1	9834	1	0	next
disjunction	positive	1	S_brown	hit	J	4315	2	14765512	1	4500	1	0	next
disjunction	negative	5	Null	hit	F	4882	2	14795347	1	5000	1	0	next
disjunction	positive	5	X_blue	hit	J	5265	2	14825683	1	5334	1	0	next
disjunction	negative	5	Null	hit	F	5800	2	14856351	1	6000	1	0	next
disjunction	negative	30	Null	hit	F	12863	2	14887687	1	13001	1	0	next
disjunction	positive	1	S_brown	hit	J	6050	2	14926023	1	6167	1	0	next
disjunction	positive	30	S_brown	hit	J	14549	2	14957525	1	14668	1	0	next
disjunction	positive	1	S_brown	hit	J	4628	2	14997527	1	4667	1	0	next
disjunction	negative	5	Null	hit	F	7744	2	15027529	1	7834	1	0	next
disjunction	positive	5	X_blue	hit	J	5619	2	15060698	1	5667	1	0	next
disjunction	negative	5	Null	hit	F	6457	2	15091700	1	6500	1	0	next
disjunction	negative	1	Null	hit	F	9021	2	15123535	1	9167	1	0	next
disjunction	positive	1	T_blue	hit	J	6200	2	15158038	1	6334	1	0	next
disjunction	negative	5	Null	hit	F	5413	2	15189706	1	5500	1	0	next
disjunction	positive	5	X_blue	hit	J	6419	2	15220542	1	6500	1	0	next
disjunction	negative	5	Null	hit	F	7222	2	15252377	1	7334	1	0	next
disjunction	positive	1	S_green	hit	J	6237	2	15285046	1	6334	1	0	next
disjunction	positive	1	S_green	hit	J	5609	2	15316715	1	5667	1	0	next
disjunction	positive	15	X_blue	hit	J	5488	2	15347717	1	5667	1	0	next
disjunction	positive	1	X_blue	hit	J	6646	2	15378719	1	6834	1	0	next
disjunction	negative	5	Null	hit	F	6478	2	15410887	1	6667	1	0	next
disjunction	negative	1	Null	hit	F	9194	2	15442889	1	9334	1	0	next
disjunction	negative	15	Null	hit	F	8451	2	15477558	1	8501	1	0	next
disjunction	negative	15	Null	hit	F	6615	2	15511394	1	6667	1	0	next
disjunction	negative	5	Null	hit	F	5653	2	15543396	1	5834	1	0	next
disjunction	positive	30	S_brown	hit	J	8246	2	15574565	1	8334	1	0	next
disjunction	positive	15	T_blue	hit	J	4975	2	15608233	1	5167	1	0	next
disjunction	positive	5	T_blue	hit	J	5035	2	15638735	1	5167	1	0	next
disjunction	positive	15	X_blue	hit	J	4775	2	15669238	1	4834	1	0	next
disjunction	positive	30	S_green	hit	J	5806	2	15699406	1	6000	1	0	next
disjunction	positive	15	S_brown	hit	J	5833	2	15730742	1	6000	1	0	next
disjunction	negative	30	Null	incorrect	J	10818	2	15762077	1	11001	1	0	next
disjunction	negative	15	Null	hit	F	8404	2	15798412	1	8501	1	0	next
disjunction	negative	15	Null	hit	F	12809	2	15832248	1	13001	1	0	next
disjunction	negative	15	Null	hit	F	9353	2	15870584	1	9501	1	0	next
disjunction	positive	30	S_brown	hit	J	7798	2	15905419	1	7834	1	0	next
disjunction	positive	5	T_blue	hit	J	5028	2	15938588	1	5167	1	0	next
disjunction	positive	15	X_blue	hit	J	4930	2	15969090	1	5000	1	0	next
disjunction	negative	30	Null	hit	F	16194	2	15999426	1	16334	1	0	next
disjunction	negative	30	Null	hit	F	8127	2	16041095	1	8167	1	0	next
disjunction	negative	1	Null	hit	F	8865	2	16074597	1	9001	1	0	next
disjunction	negative	30	Null	hit	F	9571	2	16108933	1	9667	1	0	next
disjunction	negative	1	Null	hit	F	6090	2	16143935	1	6167	1	0	next
disjunction	negative	1	Null	hit	F	5468	2	16175437	1	5667	1	0	next
disjunction	positive	1	S_green	hit	J	7105	2	16206439	1	7167	1	0	next
disjunction	negative	1	Null	hit	F	6126	2	16238941	1	6334	1	0	next
disjunction	negative	1	Null	hit	F	5979	2	16270610	1	6167	1	0	next
disjunction	positive	15	T_blue	hit	J	6316	2	16302112	1	6500	1	0	next
disjunction	negative	1	Null	hit	F	8082	2	16333947	1	8167	1	0	next
disjunction	positive	15	S_brown	hit	J	8180	2	16367449	1	8334	1	0	next
disjunction	negative	1	Null	hit	F	6032	2	16401118	1	6167	1	0	next
disjunction	negative	1	Null	hit	F	6371	2	16432620	1	6500	1	0	next
disjunction	negative	30	Null	hit	F	14857	2	16464456	1	15001	1	0	next
disjunction	negative	1	Null	hit	F	27323	2	16504792	1	27502	1	0	next
disjunction	positive	1	S_brown	hit	J	6328	2	16557628	1	6500	1	0	next
disjunction	positive	5	T_blue	hit	J	5532	2	16589464	1	5667	1	0	next
disjunction	positive	1	X_blue	hit	J	4452	2	16620466	1	4500	1	0	next
disjunction	positive	5	S_brown	hit	J	5977	2	16650301	1	6167	1	0	next
disjunction	positive	1	T_blue	hit	J	4875	2	16681803	1	5000	1	0	next
disjunction	negative	30	Null	hit	F	14538	2	16712138	1	14668	1	0	next
disjunction	negative	1	Null	hit	F	6540	2	16752141	1	6667	1	0	next
disjunction	negative	1	Null	hit	F	6218	2	16784143	1	6334	1	0	next
disjunction	positive	1	S_brown	hit	J	8310	2	16815812	1	8501	1	0	next
disjunction	negative	15	Null	hit	F	8395	2	16849647	1	8500	1	0	next
disjunction	positive	15	X_blue	hit	J	5278	2	16883483	1	5334	1	0	next
disjunction	negative	30	Null	hit	F	11734	2	16914152	1	11834	1	0	next
disjunction	positive	15	S_green	hit	J	5926	2	16951321	1	6000	1	0	next
disjunction	positive	5	S_brown	hit	J	6751	2	16982656	1	6834	1	0	next
disjunction	negative	30	Null	hit	F	12662	2	17014825	1	12834	1	0	next
disjunction	negative	30	Null	hit	F	8574	2	17052994	1	8667	1	0	next
disjunction	positive	15	S_brown	hit	J	9134	2	17086996	1	9334	1	0	next
disjunction	negative	30	Null	hit	F	15745	2	17121665	1	15834	1	0	next
disjunction	negative	15	Null	hit	F	12977	2	17162834	1	13168	1	0	next
disjunction	positive	5	T_blue	hit	J	4875	2	17201337	1	5000	1	0	next
disjunction	positive	5	X_blue	hit	J	5421	2	17231672	1	5500	1	0	next
disjunction	negative	15	Null	hit	F	8826	2	17262507	1	9001	1	0	next
disjunction	positive	30	X_blue	hit	J	5369	2	17296843	1	5500	1	0	next
disjunction	negative	15	Null	hit	F	6697	2	17327678	1	6834	1	0	next
disjunction	negative	15	Null	hit	F	8450	2	17359847	1	8501	1	0	next
disjunction	positive	15	X_blue	hit	J	4372	2	17393683	1	4500	1	0	next
disjunction	negative	15	Null	hit	F	6381	2	17423518	1	6500	1	0	next
disjunction	positive	30	T_blue	hit	J	5108	2	17455353	1	5167	1	0	next
disjunction	negative	15	Null	hit	F	7404	2	17485855	1	7501	1	0	next
disjunction	negative	15	Null	hit	F	6089	2	17518691	1	6167	1	0	next
disjunction	positive	15	S_brown	hit	J	11069	2	17550193	1	11167	1	0	next
disjunction	positive	30	S_green	hit	J	7204	2	17586695	1	7334	1	0	next
disjunction	positive	15	T_blue	hit	J	4620	2	17619364	1	4667	1	0	next
disjunction	positive	15	X_blue	hit	J	4218	2	17649366	1	4334	1	0	next
disjunction	positive	30	X_blue	hit	J	5270	2	17679034	1	5334	1	0	next
disjunction	positive	30	X_blue	hit	J	4043	2	17709703	1	4167	1	0	next
disjunction	positive	5	T_blue	hit	J	3662	2	17739205	1	3834	1	0	next
disjunction	positive	5	T_blue	hit	J	3773	2	17768374	1	3834	1	0	next
disjunction	positive	30	S_green	hit	J	5645	2	17797542	1	5834	1	0	next
disjunction	positive	30	T_blue	hit	J	3918	2	17828711	1	4000	1	0	next
disjunction	positive	30	T_blue	hit	J	3862	2	17858046	1	4000	1	0	next
disjunction	positive	30	S_green	hit	J	11328	2	17887381	1	11501	1	0	next
disjunction	positive	30	S_green	hit	J	5535	2	17924217	1	5667	1	0	next
disjunction	positive	30	S_green	hit	J	4930	2	17955219	1	5000	1	0	next
disjunction	negative	1	Null	hit	F	8468	2	18086728	1	8667	1	0	next
disjunction	positive	5	X_blue	hit	J	5824	2	18120730	1	6000	1	0	next
disjunction	positive	15	S_green	hit	J	7452	2	18152065	1	7500	1	0	next
disjunction	negative	15	Null	hit	F	16219	2	18184901	1	16334	1	0	next
disjunction	positive	30	T_blue	hit	J	8309	2	18226570	1	8501	1	0	next
disjunction	negative	15	Null	hit	F	10159	2	18260406	1	10334	1	0	next
disjunction	negative	5	Null	hit	F	7606	2	18296075	1	7667	1	0	next
disjunction	positive	5	S_brown	hit	J	5642	2	18329077	1	5834	1	0	next
disjunction	negative	30	Null	hit	F	9198	2	18360245	1	9334	1	0	next
disjunction	positive	15	X_blue	hit	J	4769	2	18394914	1	4834	1	0	next
disjunction	positive	1	T_blue	hit	J	13163	2	18425083	1	13334	1	0	next
disjunction	negative	15	Null	hit	F	9215	2	18463752	1	9334	1	0	next
disjunction	positive	30	S_green	incorrect	F	7665	2	18498421	1	7834	1	0	next
disjunction	positive	5	S_brown	incorrect	F	7617	2	18531590	1	7667	1	0	next
disjunction	negative	5	Null	hit	F	5814	2	18564592	1	6000	1	0	next
disjunction	positive	1	X_blue	hit	J	5359	2	18595927	1	5500	1	0	next
disjunction	negative	5	Null	hit	F	11007	2	18626763	1	11167	1	0	next
disjunction	positive	30	S_brown	hit	J	5546	2	18663265	1	5667	1	0	next
disjunction	negative	5	Null	hit	F	9105	2	18694267	1	9167	1	0	next
disjunction	negative	1	Null	hit	F	9164	2	18728769	1	9334	1	0	next
disjunction	positive	1	S_brown	hit	J	5694	2	18763438	1	5834	1	0	next
disjunction	positive	15	S_brown	hit	J	5086	2	18794607	1	5167	1	0	next
disjunction	positive	30	T_blue	hit	J	5306	2	18825109	1	5500	1	0	next
disjunction	negative	15	Null	hit	F	18952	2	18855944	1	19001	1	0	next
disjunction	negative	5	Null	hit	F	7575	2	18900280	1	7667	1	0	next
disjunction	negative	5	Null	hit	F	15536	2	18933283	1	15668	1	0	next
disjunction	positive	5	X_blue	hit	J	5413	2	18974285	1	5500	1	0	next
disjunction	negative	1	Null	hit	F	6099	2	19005121	1	6167	1	0	next
disjunction	negative	30	Null	hit	F	14758	2	19036623	1	14834	1	0	next
disjunction	positive	30	S_brown	hit	J	12830	2	19076792	1	13001	1	0	next
disjunction	negative	30	Null	hit	F	9374	2	19115128	1	9501	1	0	next
disjunction	positive	15	X_blue	hit	J	5578	2	19149963	1	5667	1	0	next
disjunction	positive	5	S_green	hit	J	6419	2	19180965	1	6500	1	0	next
disjunction	negative	15	Null	hit	F	6264	2	19212801	1	6334	1	0	next
disjunction	negative	30	Null	hit	F	12516	2	19244469	1	12667	1	0	next
disjunction	positive	15	S_brown	hit	J	7315	2	19282472	1	7501	1	0	next
disjunction	positive	15	T_blue	hit	J	6959	2	19315307	1	7000	1	0	next
disjunction	positive	1	S_brown	hit	J	5185	2	19347643	1	5334	1	0	next
disjunction	negative	5	Null	hit	F	7159	2	19378311	1	7334	1	0	next
disjunction	negative	30	Null	hit	F	16730	2	19410980	1	16835	1	0	next
disjunction	positive	5	S_brown	hit	J	4960	2	19453150	1	5000	1	0	next
disjunction	positive	15	T_blue	hit	J	5665	2	19483485	1	5834	1	0	next
disjunction	negative	5	Null	hit	F	6499	2	19514654	1	6667	1	0	next
disjunction	negative	5	Null	hit	F	8578	2	19546656	1	8667	1	0	next
disjunction	negative	5	Null	hit	F	7217	2	19580658	1	7334	1	0	next
disjunction	positive	30	X_blue	hit	J	5429	2	19613327	1	5500	1	0	next
disjunction	negative	30	Null	hit	F	12995	2	19644162	1	13167	1	0	next
disjunction	negative	15	Null	hit	F	11452	2	19682664	1	11501	1	0	next
disjunction	negative	1	Null	hit	F	16375	2	19719500	1	16501	1	0	next
disjunction	positive	1	S_brown	hit	J	6543	2	19761336	1	6667	1	0	next
disjunction	negative	15	Null	hit	F	10542	2	19793338	1	10667	1	0	next
disjunction	negative	30	Null	hit	F	10381	2	19829341	1	10501	1	0	next
disjunction	positive	30	X_blue	hit	J	5905	2	19865176	1	6000	1	0	next
disjunction	negative	5	Null	hit	F	6571	2	19896512	1	6667	1	0	next
disjunction	positive	5	S_brown	hit	J	7367	2	19928514	1	7500	1	0	next
disjunction	negative	30	Null	hit	F	14695	2	19961349	1	14834	1	0	next
disjunction	positive	1	S_brown	hit	J	6047	2	20001519	1	6167	1	0	next
disjunction	negative	1	Null	incorrect	J	5265	2	20033021	1	5334	1	0	next
disjunction	negative	30	Null	hit	F	16197	2	20063689	1	16334	1	0	next
disjunction	negative	30	Null	hit	F	11328	2	20105359	1	11501	1	0	next
disjunction	negative	1	Null	hit	F	8414	2	20142194	1	8501	1	0	next
disjunction	positive	1	X_blue	hit	J	10098	2	20176030	1	10167	1	0	next
disjunction	negative	15	Null	hit	F	11237	2	20211532	1	11334	1	0	next
disjunction	negative	15	Null	hit	F	13451	2	20248201	1	13501	1	0	next
disjunction	negative	15	Null	hit	F	9177	2	20287037	1	9334	1	0	next
disjunction	positive	30	S_brown	hit	J	14346	2	20321706	1	14501	1	0	next
disjunction	positive	5	S_green	hit	J	5393	2	20361542	1	5500	1	0	next
disjunction	negative	15	Null	hit	F	12799	2	20392377	1	13001	1	0	next
disjunction	negative	1	Null	hit	F	7103	2	20430713	1	7167	1	0	next
disjunction	negative	30	Null	hit	F	16519	2	20463215	1	16668	1	0	next
disjunction	negative	15	Null	hit	F	13241	2	20505218	1	13334	1	0	next
disjunction	negative	5	Null	hit	F	6410	2	20543887	1	6500	1	0	next
disjunction	positive	15	T_blue	hit	J	3857	2	20575722	1	4000	1	0	next
disjunction	negative	1	Null	hit	F	5883	2	20605058	1	6000	1	0	next
disjunction	positive	5	S_brown	hit	J	10388	2	20636393	1	10501	1	0	next
disjunction	negative	15	Null	hit	F	6553	2	20672229	1	6667	1	0	next
disjunction	positive	1	S_green	hit	J	5113	2	20704231	1	5167	1	0	next
disjunction	positive	15	T_blue	hit	J	6612	2	20734733	1	6667	1	0	next
disjunction	positive	30	S_brown	hit	J	14931	2	20766735	1	15001	1	0	next
disjunction	negative	1	Null	hit	F	15876	2	20807071	1	16001	1	0	next
disjunction	negative	1	Null	hit	F	14060	2	20848407	1	14168	1	0	next
disjunction	positive	1	S_green	hit	J	17118	2	20887909	1	17168	1	0	next
disjunction	negative	15	Null	hit	F	9336	2	20930412	1	9501	1	0	next
disjunction	positive	1	S_green	hit	J	3782	2	20965248	1	3833	1	0	next
disjunction	positive	1	X_blue	hit	J	5815	2	20994416	1	6000	1	0	next
disjunction	negative	30	Null	hit	F	8561	2	21025752	1	8667	1	0	next
disjunction	positive	1	S_brown	hit	J	5920	2	21059754	1	6000	1	0	next
disjunction	negative	30	Null	hit	F	8183	2	21091089	1	8334	1	0	next
disjunction	positive	15	S_green	hit	J	5717	2	21124758	1	5834	1	0	next
disjunction	positive	5	S_green	hit	J	5109	2	21155927	1	5167	1	0	next
disjunction	positive	5	T_blue	hit	J	5327	2	21186429	1	5500	1	0	next
disjunction	negative	15	Null	hit	F	9853	2	21217264	1	10001	1	0	next
disjunction	positive	30	T_blue	hit	J	5081	2	21252600	1	5167	1	0	next
disjunction	negative	15	Null	hit	F	5297	2	21283102	1	5500	1	0	next
disjunction	positive	15	X_blue	incorrect	F	4542	2	21313937	1	4667	1	0	next
disjunction	negative	1	Null	hit	F	8942	2	21343939	1	9001	1	0	next
disjunction	negative	5	Null	hit	F	9485	2	21378274	1	9667	1	0	next
disjunction	positive	15	X_blue	hit	J	5204	2	21413277	1	5334	1	0	next
disjunction	positive	30	X_blue	hit	J	4616	2	21443945	1	4667	1	0	next
disjunction	negative	1	Null	hit	F	7257	2	21473947	1	7334	1	0	next
disjunction	positive	1	T_blue	hit	J	4825	2	21506616	1	5000	1	0	next
disjunction	negative	30	Null	hit	F	10172	2	21536951	1	10334	1	0	next
disjunction	positive	15	S_green	hit	J	5545	2	21572620	1	5667	1	0	next
disjunction	positive	5	T_blue	hit	J	5585	2	21603622	1	5667	1	0	next
disjunction	negative	30	Null	hit	F	10262	2	21634624	1	10334	1	0	next
disjunction	negative	1	Null	hit	F	6755	2	21670293	1	6834	1	0	next
disjunction	negative	5	Null	hit	F	11388	2	21702462	1	11501	1	0	next
disjunction	positive	1	X_blue	hit	J	5113	2	21739298	1	5167	1	0	next
disjunction	positive	30	X_blue	hit	J	5332	2	21769800	1	5500	1	0	next
disjunction	positive	1	X_blue	hit	J	6817	2	21800635	1	7000	1	0	next
disjunction	positive	30	T_blue	hit	J	5200	2	21832971	1	5334	1	0	next
disjunction	positive	30	S_green	incorrect	F	10854	2	21863639	1	11001	1	0	next
disjunction	positive	30	T_blue	hit	J	6038	2	21899975	1	6167	1	0	next
disjunction	positive	5	T_blue	hit	J	4936	2	21931477	1	5000	1	0	next
disjunction	positive	30	X_blue	hit	J	4202	2	21961812	1	4334	1	0	next
disjunction	positive	1	T_blue	hit	J	3496	2	21991481	1	3667	1	0	next
disjunction	positive	15	T_blue	hit	J	4256	2	22020483	1	4334	1	0	next
disjunction	negative	1	Null	hit	F	9628	2	22050151	1	9834	1	0	next
disjunction	positive	5	S_green	hit	J	8537	2	22085320	1	8667	1	0	next
disjunction	negative	1	Null	hit	F	9418	2	22119323	1	9501	1	0	next
disjunction	negative	1	Null	hit	F	5943	2	22154158	1	6000	1	0	next
disjunction	positive	5	S_green	hit	J	4687	2	22185494	1	4834	1	0	next
disjunction	negative	30	Null	hit	F	13720	2	22215662	1	13834	1	0	next
disjunction	negative	5	Null	hit	F	6553	2	22254831	1	6667	1	0	next
disjunction	positive	5	S_green	hit	J	6550	2	22286833	1	6667	1	0	next
disjunction	negative	5	Null	hit	F	6069	2	22318835	1	6167	1	0	next
disjunction	positive	15	S_green	hit	J	5129	2	22350338	1	5167	1	0	next
disjunction	positive	15	S_green	hit	J	6788	2	22380840	1	6834	1	0	next
conjunction	positive	15	T_green	incorrect	F	22360	2	22535516	1	22501	1	0	next
conjunction	negative	30	Null	incorrect	J	6842	2	22583353	1	7000	1	0	next
conjunction	positive	15	T_green	hit	J	5702	2	22615688	1	5834	1	0	next
conjunction	negative	15	Null	hit	F	9738	2	22646857	1	9834	1	0	next
conjunction	negative	5	Null	hit	F	11529	2	22682026	1	11667	1	0	next
conjunction	positive	1	T_green	hit	J	16287	2	22719028	1	16334	1	0	next
conjunction	negative	1	Null	hit	F	6140	2	22760698	1	6334	1	0	next
conjunction	positive	15	T_green	hit	J	11911	2	22792366	1	12001	1	0	next
conjunction	negative	1	Null	hit	F	8178	2	22829702	1	8334	1	0	next
conjunction	negative	1	Null	hit	F	6988	2	22863371	1	7167	1	0	next
conjunction	negative	30	Null	hit	F	19286	2	22895873	1	19335	1	0	next
conjunction	negative	5	Null	hit	F	8858	2	22940542	1	9001	1	0	next
conjunction	positive	30	T_green	incorrect	F	12125	2	22974878	1	12167	1	0	next
conjunction	positive	30	T_green	hit	J	12384	2	23012380	1	12501	1	0	next
conjunction	negative	15	Null	hit	F	8311	2	23050216	1	8501	1	0	next
conjunction	negative	30	Null	hit	F	16875	2	23084052	1	17001	1	0	next
conjunction	positive	30	T_green	hit	J	11819	2	23126388	1	12001	1	0	next
conjunction	positive	1	T_green	hit	J	5843	2	23163724	1	6000	1	0	next
conjunction	negative	5	Null	hit	F	6989	2	23195059	1	7167	1	0	next
conjunction	positive	1	T_green	hit	J	5208	2	23227561	1	5334	1	0	next
conjunction	positive	15	T_green	hit	J	7179	2	23258230	1	7334	1	0	next
conjunction	positive	30	T_green	hit	J	7953	2	23290899	1	8000	1	0	next
conjunction	negative	5	Null	hit	F	10296	2	23324234	1	10334	1	0	next
conjunction	negative	5	Null	hit	F	9830	2	23359903	1	10001	1	0	next
conjunction	negative	30	Null	hit	F	21854	2	23395239	1	22001	1	0	next
conjunction	positive	5	T_green	hit	J	7480	2	23442575	1	7667	1	0	next
conjunction	positive	5	T_green	hit	J	5357	2	23475577	1	5500	1	0	next
conjunction	positive	15	T_green	hit	J	7006	2	23506413	1	7167	1	0	next
conjunction	positive	1	T_green	hit	J	5383	2	23538915	1	5500	1	0	next
conjunction	negative	1	Null	incorrect	J	6229	2	23569750	1	6334	1	0	next
conjunction	positive	1	T_green	hit	J	5761	2	23601419	1	5834	1	0	next
conjunction	positive	5	T_green	hit	J	6115	2	23632587	1	6167	1	0	next
conjunction	negative	1	Null	hit	F	5492	2	23664089	1	5667	1	0	next
conjunction	negative	5	Null	hit	F	10811	2	23695091	1	11001	1	0	next
conjunction	negative	30	Null	hit	F	19276	2	23731427	1	19335	1	0	next
conjunction	negative	15	Null	hit	F	10927	2	23776097	1	11001	1	0	next
conjunction	positive	30	T_green	hit	J	12030	2	23812432	1	12167	1	0	next
conjunction	negative	5	Null	hit	F	8932	2	23849935	1	9001	1	0	next
conjunction	negative	1	Null	hit	F	8035	2	23884270	1	8167	1	0	next
conjunction	positive	30	T_green	hit	J	7816	2	23917773	1	8000	1	0	next
conjunction	negative	30	Null	hit	F	14321	2	23951108	1	14501	1	0	next
conjunction	negative	5	Null	hit	F	8246	2	23990944	1	8334	1	0	next
conjunction	positive	1	T_green	hit	J	5619	2	24024613	1	5667	1	0	next
conjunction	positive	30	T_green	hit	J	16855	2	24055615	1	17001	1	0	next
conjunction	negative	1	Null	hit	F	7481	2	24097951	1	7667	1	0	next
conjunction	negative	1	Null	hit	F	6160	2	24130953	1	6334	1	0	next
conjunction	negative	5	Null	hit	F	9372	2	24162622	1	9501	1	0	next
conjunction	positive	15	T_green	hit	J	7337	2	24197457	1	7500	1	0	next
conjunction	positive	5	T_green	hit	J	6022	2	24230293	1	6167	1	0	next
conjunction	positive	1	T_green	hit	J	5561	2	24261795	1	5667	1	0	next
conjunction	negative	15	Null	hit	F	9920	2	24292797	1	10001	1	0	next
conjunction	negative	1	Null	hit	F	6266	2	24328133	1	6334	1	0	next
conjunction	positive	5	T_green	hit	J	5477	2	24359801	1	5667	1	0	next
conjunction	positive	30	T_green	hit	J	14957	2	24390803	1	15001	1	0	next
conjunction	positive	5	T_green	hit	J	7580	2	24431139	1	7667	1	0	next
conjunction	positive	5	T_green	hit	J	9141	2	24464141	1	9334	1	0	next
conjunction	positive	1	T_green	hit	J	5675	2	24498810	1	5834	1	0	next
conjunction	negative	1	Null	hit	F	6506	2	24529979	1	6667	1	0	next
conjunction	positive	5	T_green	hit	J	6182	2	24561981	1	6334	1	0	next
conjunction	negative	15	Null	hit	F	10194	2	24593650	1	10334	1	0	next
conjunction	positive	5	T_green	hit	J	5887	2	24629319	1	6000	1	0	next
conjunction	negative	15	Null	hit	F	15352	2	24660654	1	15501	1	0	next
conjunction	negative	15	Null	hit	F	8918	2	24701490	1	9001	1	0	next
conjunction	negative	5	Null	hit	F	7862	2	24735826	1	8001	1	0	next
conjunction	negative	1	Null	hit	F	8290	2	24769161	1	8334	1	0	next
conjunction	positive	30	T_green	hit	J	6141	2	24802830	1	6334	1	0	next
conjunction	negative	1	Null	hit	F	7432	2	24834499	1	7500	1	0	next
conjunction	negative	1	Null	hit	F	6278	2	24867334	1	6334	1	0	next
conjunction	positive	30	T_green	hit	J	8370	2	24899003	1	8501	1	0	next
conjunction	negative	15	Null	hit	F	10376	2	24932838	1	10501	1	0	next
conjunction	negative	30	Null	hit	F	11020	2	24968674	1	11167	1	0	next
conjunction	negative	30	Null	hit	F	12122	2	25005176	1	12167	1	0	next
conjunction	positive	5	T_green	hit	J	8856	2	25042679	1	9001	1	0	next
conjunction	negative	5	Null	hit	F	7803	2	25077014	1	7834	1	0	next
conjunction	negative	30	Null	hit	F	15756	2	25110183	1	15834	1	0	next
conjunction	negative	1	Null	hit	F	7388	2	25151353	1	7501	1	0	next
conjunction	positive	1	T_green	hit	J	7031	2	25184188	1	7167	1	0	next
conjunction	positive	1	T_green	hit	J	5890	2	25216690	1	6000	1	0	next
conjunction	positive	30	T_green	hit	J	9438	2	25248026	1	9501	1	0	next
conjunction	positive	1	T_green	hit	J	5481	2	25282861	1	5667	1	0	next
conjunction	positive	1	T_green	hit	J	4400	2	25313863	1	4500	1	0	next
conjunction	positive	5	T_green	hit	J	5126	2	25343698	1	5334	1	0	next
conjunction	negative	1	Null	hit	F	6938	2	25374367	1	7001	1	0	next
conjunction	negative	5	Null	hit	F	9482	2	25406702	1	9667	1	0	next
conjunction	positive	30	T_green	hit	J	8242	2	25441705	1	8334	1	0	next
conjunction	positive	1	T_green	hit	J	6094	2	25475374	1	6167	1	0	next
conjunction	negative	1	Null	hit	F	5472	2	25506876	1	5667	1	0	next
conjunction	negative	15	Null	hit	F	13512	2	25537878	1	13668	1	0	next
conjunction	positive	30	T_green	hit	J	12751	2	25576880	1	12834	1	0	next
conjunction	negative	30	Null	hit	F	10100	2	25615049	1	10167	1	0	next
conjunction	negative	30	Null	hit	F	7401	2	25650552	1	7500	1	0	next
conjunction	negative	15	Null	hit	F	11844	2	25683387	1	12001	1	0	next
conjunction	negative	5	Null	hit	F	4911	2	25720723	1	5000	1	0	next
conjunction	negative	15	Null	hit	F	8176	2	25751058	1	8334	1	0	next
conjunction	positive	15	T_green	hit	J	8267	2	25784727	1	8334	1	0	next
conjunction	positive	5	T_green	hit	J	5801	2	25818396	1	6000	1	0	next
conjunction	negative	5	Null	hit	F	7105	2	25849731	1	7167	1	0	next
conjunction	negative	30	Null	hit	F	13006	2	25882233	1	13168	1	0	next
conjunction	positive	30	T_green	hit	J	8745	2	25920736	1	8834	1	0	next
conjunction	positive	30	T_green	hit	J	9297	2	25954905	1	9501	1	0	next
conjunction	positive	15	T_green	hit	J	9021	2	25989740	1	9167	1	0	next
conjunction	positive	30	T_green	hit	J	8440	2	26024243	1	8500	1	0	next
conjunction	positive	15	T_green	hit	J	11724	2	26058078	1	11834	1	0	next
conjunction	positive	5	T_green	hit	J	5117	2	26095247	1	5167	1	0	next
conjunction	negative	5	Null	hit	F	6456	2	26125749	1	6500	1	0	next
conjunction	positive	5	T_green	hit	J	5662	2	26157585	1	5834	1	0	next
conjunction	positive	1	T_green	hit	J	4573	2	26188753	1	4667	1	0	next
conjunction	positive	1	T_green	hit	J	4493	2	26218755	1	4667	1	0	next
conjunction	negative	15	Null	hit	F	8092	2	26248757	1	8167	1	0	next
conjunction	positive	15	T_green	hit	J	7710	2	26282259	1	7834	1	0	next
conjunction	positive	5	T_green	hit	J	5582	2	26315428	1	5667	1	0	next
conjunction	positive	1	T_green	hit	J	4340	2	26346430	1	4500	1	0	next
conjunction	positive	5	T_green	hit	J	10508	2	26376265	1	10667	1	0	next
conjunction	positive	15	T_green	hit	J	8902	2	26412268	1	9001	1	0	next
conjunction	negative	5	Null	hit	F	7369	2	26446603	1	7501	1	0	next
conjunction	negative	30	Null	hit	F	16456	2	26479439	1	16501	1	0	next
conjunction	positive	15	T_green	hit	J	8541	2	26521275	1	8667	1	0	next
conjunction	positive	15	T_green	hit	J	8940	2	26555277	1	9001	1	0	next
conjunction	positive	15	T_green	hit	J	4363	2	26589613	1	4500	1	0	next
conjunction	positive	15	T_green	hit	J	6689	2	26619448	1	6834	1	0	next
conjunction	negative	30	Null	hit	F	12922	2	26651617	1	13001	1	0	next
conjunction	negative	15	Null	hit	F	10427	2	26689952	1	10501	1	0	next
conjunction	negative	15	Null	hit	F	13473	2	26725788	1	13668	1	0	next
conjunction	positive	15	T_green	hit	J	6950	2	26764791	1	7000	1	0	next
conjunction	negative	15	Null	hit	F	9816	2	26797126	1	10001	1	0	next
conjunction	negative	15	Null	hit	F	8082	2	26832462	1	8167	1	0	next
conjunction	negative	30	Null	hit	F	13301	2	26865964	1	13501	1	0	next
conjunction	negative	30	Null	hit	F	15426	2	26904800	1	15501	1	0	next
