Target_Type	Trial_Type	Display_Size	Target	Response	Key_press	RT	Uncertainty	Time	Uncertainty	Duration	Uncertainty	ReqTime	ReqDur
disjunction	positive	30	S_green	hit	J	32517	2	147398	1	32669	1	0	next
disjunction	negative	5	Null	hit	F	10034	2	205402	1	10167	1	0	next
disjunction	negative	1	Null	hit	F	16132	2	240904	1	16168	1	0	next
disjunction	negative	15	Null	hit	F	9512	2	282407	1	9667	1	0	next
disjunction	positive	5	S_brown	hit	J	10188	2	317409	1	10334	1	0	next
disjunction	negative	15	Null	hit	F	6681	2	353078	1	6834	1	0	next
disjunction	negative	5	Null	hit	F	7153	2	385247	1	7334	1	0	next
disjunction	positive	30	S_brown	hit	J	10009	2	417915	1	10167	1	0	next
disjunction	negative	5	Null	hit	F	7305	2	453418	1	7334	1	0	next
disjunction	negative	30	Null	hit	F	14318	2	486087	1	14501	1	0	next
disjunction	positive	5	T_blue	hit	J	7761	2	525922	1	7834	1	0	next
disjunction	negative	30	Null	hit	F	9476	2	559091	1	9667	1	0	next
disjunction	negative	5	Null	hit	F	8393	2	594093	1	8501	1	0	next
disjunction	positive	30	X_blue	hit	J	10879	2	627929	1	11001	1	0	next
disjunction	positive	30	S_green	hit	J	14066	2	664265	1	14168	1	0	next
disjunction	negative	15	Null	hit	F	16003	2	703767	1	16168	1	0	next
disjunction	negative	1	Null	hit	F	15464	2	745270	1	15668	1	0	next
disjunction	negative	1	Null	hit	F	13017	2	786273	1	13167	1	0	next
disjunction	positive	30	S_brown	hit	J	8437	2	824775	1	8501	1	0	next
disjunction	positive	5	S_green	hit	J	6281	2	858610	1	6334	1	0	next
disjunction	negative	15	Null	hit	F	18776	2	890279	1	18835	1	0	next
disjunction	positive	1	S_brown	hit	J	10128	2	934449	1	10167	1	0	next
disjunction	positive	5	X_blue	hit	J	6784	2	969951	1	6834	1	0	next
disjunction	negative	5	Null	hit	F	9177	2	1002120	1	9334	1	0	next
disjunction	positive	5	S_brown	hit	J	6028	2	1036789	1	6167	1	0	next
disjunction	negative	15	Null	hit	F	6053	2	1068291	1	6167	1	0	next
disjunction	positive	5	X_blue	hit	J	8467	2	1099793	1	8501	1	0	next
disjunction	negative	15	Null	hit	F	8871	2	1133628	1	9001	1	0	next
disjunction	positive	5	T_blue	hit	J	5898	2	1167964	1	6000	1	0	next
disjunction	negative	30	Null	hit	F	13603	2	1199299	1	13668	1	0	next
disjunction	positive	5	T_blue	hit	J	5322	2	1238302	1	5500	1	0	next
disjunction	positive	15	X_blue	incorrect	F	5365	2	1269137	1	5500	1	0	next
disjunction	negative	5	Null	incorrect	J	5094	2	1299972	1	5167	1	0	next
disjunction	negative	1	Null	hit	F	13953	2	1330474	1	14001	1	0	next
disjunction	positive	15	X_blue	hit	J	5338	2	1369810	1	5500	1	0	next
disjunction	positive	1	S_brown	hit	J	7940	2	1400645	1	8001	1	0	next
disjunction	negative	5	Null	incorrect	J	4525	2	1433981	1	4667	1	0	next
disjunction	negative	15	Null	hit	F	11167	2	1463983	1	11334	1	0	next
disjunction	negative	15	Null	hit	F	9059	2	1500652	1	9167	1	0	next
disjunction	negative	15	Null	hit	F	7038	2	1535154	1	7167	1	0	next
disjunction	negative	5	Null	hit	F	7174	2	1567656	1	7334	1	0	next
disjunction	positive	5	T_blue	hit	J	6828	2	1600325	1	7000	1	0	next
disjunction	positive	15	X_blue	hit	J	4415	2	1632660	1	4500	1	0	next
disjunction	positive	5	X_blue	hit	J	4500	2	1662495	1	4667	1	0	next
disjunction	negative	5	Null	hit	F	7299	2	1692497	1	7334	1	0	next
disjunction	positive	30	S_green	hit	J	8068	2	1725166	1	8167	1	0	next
disjunction	negative	1	Null	hit	F	11526	2	1758668	1	11667	1	0	next
disjunction	negative	30	Null	hit	F	17729	2	1795671	1	17834	1	0	next
disjunction	negative	1	Null	hit	F	14716	2	1838840	1	14834	1	0	next
disjunction	negative	30	Null	hit	F	13909	2	1879009	1	14001	1	0	next
disjunction	negative	1	Null	hit	F	10093	2	1918345	1	10167	1	0	next
disjunction	negative	1	Null	hit	F	5633	2	1953847	1	5667	1	0	next
disjunction	positive	5	S_green	incorrect	F	8391	2	1984849	1	8501	1	0	next
disjunction	positive	30	X_blue	hit	J	6397	2	2018685	1	6500	1	0	next
disjunction	positive	15	T_blue	hit	J	4804	2	2050520	1	4834	1	0	next
disjunction	positive	15	S_brown	hit	J	10474	2	2080689	1	10667	1	0	next
disjunction	positive	5	X_blue	hit	J	5677	2	2116691	1	5834	1	0	next
disjunction	negative	1	Null	hit	F	6829	2	2147860	1	7000	1	0	next
disjunction	positive	15	S_green	hit	J	6812	2	2180195	1	7000	1	0	next
disjunction	negative	15	Null	hit	F	11279	2	2212531	1	11334	1	0	next
disjunction	positive	1	S_brown	hit	J	8527	2	2249200	1	8667	1	0	next
disjunction	positive	30	T_blue	hit	J	6686	2	2283202	1	6834	1	0	next
disjunction	positive	1	S_green	hit	J	7962	2	2315371	1	8000	1	0	next
disjunction	negative	5	Null	hit	F	8384	2	2348706	1	8501	1	0	next
disjunction	positive	30	S_brown	hit	J	8153	2	2382542	1	8334	1	0	next
disjunction	positive	30	S_green	hit	J	7284	2	2416210	1	7334	1	0	next
disjunction	positive	30	T_blue	hit	J	5656	2	2448879	1	5834	1	0	next
disjunction	negative	1	Null	hit	F	9845	2	2480048	1	10001	1	0	next
disjunction	positive	1	X_blue	hit	J	14193	2	2515383	1	14334	1	0	next
disjunction	positive	15	S_brown	hit	J	5724	2	2555053	1	5834	1	0	next
disjunction	negative	15	Null	hit	F	8318	2	2586221	1	8501	1	0	next
disjunction	positive	1	S_brown	hit	J	7442	2	2620057	1	7500	1	0	next
disjunction	positive	30	S_brown	hit	J	7087	2	2652892	1	7167	1	0	next
disjunction	negative	5	Null	hit	F	8663	2	2685394	1	8834	1	0	next
disjunction	negative	5	Null	hit	F	8739	2	2719563	1	8834	1	0	next
disjunction	positive	5	T_blue	hit	J	6411	2	2753732	1	6500	1	0	next
disjunction	positive	30	X_blue	hit	J	6892	2	2785567	1	7000	1	0	next
disjunction	negative	15	Null	hit	F	9442	2	2817903	1	9501	1	0	next
disjunction	negative	1	Null	incorrect	J	5487	2	2852738	1	5667	1	0	next
disjunction	positive	1	S_brown	hit	J	6006	2	2883740	1	6167	1	0	next
disjunction	negative	5	Null	hit	F	7305	2	2915242	1	7500	1	0	next
disjunction	negative	5	Null	hit	F	9186	2	2948078	1	9334	1	0	next
disjunction	positive	30	T_blue	hit	J	6199	2	2982747	1	6334	1	0	next
disjunction	negative	15	Null	hit	F	9092	2	3014416	1	9167	1	0	next
disjunction	positive	1	T_blue	hit	J	13950	2	3048918	1	14001	1	0	next
disjunction	negative	15	Null	hit	F	12378	2	3088254	1	12501	1	0	next
disjunction	positive	30	S_brown	incorrect	F	8780	2	3126089	1	8834	1	0	next
disjunction	positive	5	S_green	hit	J	8058	2	3160258	1	8167	1	0	next
disjunction	positive	1	X_blue	incorrect	F	15833	2	3193760	1	16001	1	0	next
disjunction	positive	1	T_blue	hit	J	5056	2	3235096	1	5167	1	0	next
disjunction	positive	30	X_blue	hit	J	5438	2	3265598	1	5500	1	0	next
disjunction	negative	30	Null	hit	F	8680	2	3296434	1	8834	1	0	next
disjunction	negative	1	Null	hit	F	18994	2	3330603	1	19168	1	0	next
disjunction	positive	15	X_blue	hit	J	4732	2	3375105	1	4834	1	0	next
disjunction	negative	15	Null	hit	F	8489	2	3405274	1	8667	1	0	next
disjunction	negative	30	Null	hit	F	9361	2	3439276	1	9501	1	0	next
disjunction	positive	5	S_green	hit	J	7969	2	3474112	1	8167	1	0	next
disjunction	negative	5	Null	hit	F	6467	2	3507614	1	6500	1	0	next
disjunction	negative	15	Null	incorrect	J	13674	2	3539449	1	13834	1	0	next
disjunction	positive	15	T_blue	hit	J	5706	2	3578618	1	5834	1	0	next
disjunction	positive	15	X_blue	hit	J	6694	2	3609787	1	6834	1	0	next
disjunction	negative	1	Null	hit	F	10366	2	3641956	1	10501	1	0	next
disjunction	negative	1	Null	hit	F	7176	2	3677791	1	7334	1	0	next
disjunction	positive	1	S_green	hit	J	10185	2	3710460	1	10334	1	0	next
disjunction	negative	30	Null	hit	F	7958	2	3746129	1	8000	1	0	next
disjunction	positive	15	X_blue	hit	J	7903	2	3779465	1	8000	1	0	next
disjunction	negative	1	Null	hit	F	6410	2	3812800	1	6500	1	0	next
disjunction	positive	5	S_brown	hit	J	11213	2	3844635	1	11334	1	0	next
disjunction	positive	1	T_blue	hit	J	7987	2	3881305	1	8167	1	0	next
disjunction	negative	5	Null	hit	F	6805	2	3914807	1	7000	1	0	next
disjunction	positive	1	S_brown	hit	J	8708	2	3947142	1	8834	1	0	next
disjunction	positive	1	T_blue	hit	J	4783	2	3981311	1	4834	1	0	next
disjunction	positive	1	T_blue	hit	J	5975	2	4011479	1	6167	1	0	next
disjunction	negative	30	Null	hit	F	7916	2	4042982	1	8000	1	0	next
disjunction	positive	15	S_green	hit	J	6420	2	4076317	1	6500	1	0	next
disjunction	positive	15	T_blue	hit	J	6265	2	4108152	1	6334	1	0	next
disjunction	positive	1	S_green	hit	J	7553	2	4139821	1	7667	1	0	next
disjunction	positive	15	S_green	hit	J	8317	2	4172823	1	8501	1	0	next
disjunction	positive	15	S_green	hit	J	5199	2	4206659	1	5334	1	0	next
disjunction	positive	15	S_green	hit	J	9092	2	4237327	1	9167	1	0	next
disjunction	negative	30	Null	hit	F	14433	2	4271830	1	14501	1	0	next
disjunction	negative	30	Null	hit	F	17158	2	4311665	1	17334	1	0	next
disjunction	negative	30	Null	hit	F	6489	2	4354335	1	6667	1	0	next
disjunction	negative	1	Null	hit	F	10488	2	4386337	1	10667	1	0	next
disjunction	negative	30	Null	hit	F	8242	2	4422339	1	8334	1	0	next
disjunction	negative	30	Null	hit	F	4979	2	4456008	1	5167	1	0	next
disjunction	negative	30	Null	hit	F	5035	2	4486510	1	5167	1	0	next
disjunction	negative	30	Null	hit	F	4612	2	4517012	1	4667	1	0	next
conjunction	positive	1	T_green	incorrect	F	13862	2	4829532	1	14001	1	0	next
conjunction	positive	5	T_green	incorrect	F	9089	2	4868868	1	9167	1	0	next
conjunction	positive	30	T_green	incorrect	F	13628	2	4903370	1	13667	1	0	next
conjunction	negative	1	Null	incorrect	J	33023	2	4942373	1	33169	1	0	next
conjunction	negative	30	Null	hit	F	28122	2	5000876	1	28168	1	0	next
conjunction	positive	1	T_green	incorrect	F	17981	2	5054380	1	18168	1	0	next
conjunction	positive	1	T_green	hit	J	5840	2	5097883	1	6000	1	0	next
conjunction	negative	30	Null	hit	F	13705	2	5129218	1	13834	1	0	next
conjunction	negative	30	Null	hit	F	6373	2	5168387	1	6500	1	0	next
conjunction	negative	1	Null	incorrect	J	8462	2	5200222	1	8501	1	0	next
conjunction	positive	30	T_green	incorrect	F	28705	2	5234058	1	28835	1	0	next
conjunction	negative	15	Null	hit	F	15661	2	5288228	1	15834	1	0	next
conjunction	positive	5	T_green	incorrect	F	9529	2	5329397	1	9667	1	0	next
conjunction	negative	1	Null	hit	F	9728	2	5364400	1	9834	1	0	next
conjunction	positive	15	T_green	hit	J	19843	2	5399569	1	20001	1	0	next
conjunction	negative	5	Null	hit	F	7786	2	5444905	1	7834	1	0	next
conjunction	positive	5	T_green	hit	J	5178	2	5478074	1	5334	1	0	next
conjunction	positive	30	T_green	hit	J	12109	2	5508742	1	12167	1	0	next
conjunction	positive	5	T_green	hit	J	5808	2	5546245	1	6000	1	0	next
conjunction	positive	5	T_green	hit	J	4395	2	5577580	1	4500	1	0	next
conjunction	negative	1	Null	hit	F	6878	2	5607415	1	7000	1	0	next
conjunction	negative	1	Null	hit	F	7344	2	5639751	1	7500	1	0	next
conjunction	positive	5	T_green	hit	J	9551	2	5672586	1	9667	1	0	next
conjunction	negative	30	Null	hit	F	26708	2	5707588	1	26835	1	0	next
conjunction	positive	15	T_green	incorrect	F	13261	2	5759758	1	13334	1	0	next
conjunction	negative	15	Null	hit	F	16192	2	5798428	1	16334	1	0	next
conjunction	negative	30	Null	hit	F	24603	2	5840097	1	24668	1	0	next
conjunction	positive	1	T_green	hit	J	6601	2	5890100	1	6667	1	0	next
conjunction	positive	30	T_green	hit	J	15078	2	5922102	1	15168	1	0	next
conjunction	positive	15	T_green	incorrect	F	13460	2	5962605	1	13501	1	0	next
conjunction	negative	15	Null	hit	F	19264	2	6001441	1	19335	1	0	next
conjunction	positive	5	T_green	hit	J	7554	2	6046110	1	7667	1	0	next
conjunction	negative	15	Null	hit	F	14394	2	6079112	1	14501	1	0	next
conjunction	positive	5	T_green	hit	J	5758	2	6118948	1	5834	1	0	next
conjunction	negative	15	Null	hit	F	19390	2	6150117	1	19501	1	0	next
conjunction	positive	1	T_green	hit	J	13918	2	6194953	1	14001	1	0	next
conjunction	negative	15	Null	hit	F	32021	2	6234289	1	32169	1	0	next
conjunction	positive	30	T_green	incorrect	F	16280	2	6291793	1	16334	1	0	next
conjunction	positive	1	T_green	hit	J	9490	2	6333462	1	9667	1	0	next
conjunction	negative	1	Null	hit	F	12730	2	6368464	1	12834	1	0	next
conjunction	negative	30	Null	hit	F	21442	2	6406633	1	21501	1	0	next
conjunction	positive	30	T_green	hit	J	12846	2	6453470	1	13001	1	0	next
conjunction	positive	15	T_green	hit	J	5871	2	6491805	1	6000	1	0	next
conjunction	negative	1	Null	hit	F	18220	2	6523141	1	18334	1	0	next
conjunction	positive	30	T_green	hit	J	9270	2	6566810	1	9334	1	0	next
conjunction	positive	5	T_green	incorrect	F	9642	2	6601479	1	9834	1	0	next
conjunction	negative	5	Null	hit	F	9031	2	6636648	1	9167	1	0	next
conjunction	negative	1	Null	hit	F	9411	2	6671150	1	9501	1	0	next
conjunction	positive	1	T_green	hit	J	8656	2	6705986	1	8834	1	0	next
conjunction	positive	5	T_green	hit	J	8410	2	6740155	1	8501	1	0	next
conjunction	positive	30	T_green	hit	J	6415	2	6773990	1	6500	1	0	next
conjunction	positive	15	T_green	hit	J	9139	2	6805826	1	9334	1	0	next
conjunction	positive	30	T_green	incorrect	F	20875	2	6840494	1	21001	1	0	next
conjunction	positive	5	T_green	hit	J	7176	2	6886831	1	7334	1	0	next
conjunction	positive	5	T_green	hit	J	10346	2	6919500	1	10501	1	0	next
conjunction	negative	1	Null	hit	F	9554	2	6955335	1	9667	1	0	next
conjunction	negative	1	Null	hit	F	12954	2	6990337	1	13001	1	0	next
conjunction	negative	5	Null	hit	F	17177	2	7028673	1	17334	1	0	next
conjunction	positive	5	T_green	incorrect	F	6348	2	7071343	1	6500	1	0	next
conjunction	negative	5	Null	hit	F	10676	2	7103178	1	10834	1	0	next
conjunction	positive	15	T_green	hit	J	25384	2	7139347	1	25502	1	0	next
conjunction	positive	1	T_green	hit	J	5753	2	7190184	1	5834	1	0	next
conjunction	negative	5	Null	hit	F	8825	2	7221352	1	9000	1	0	next
conjunction	positive	5	T_green	hit	J	14171	2	7255688	1	14334	1	0	next
conjunction	positive	15	T_green	hit	J	5699	2	7295357	1	5834	1	0	next
conjunction	negative	1	Null	hit	F	9096	2	7326526	1	9167	1	0	next
conjunction	positive	5	T_green	hit	J	5951	2	7361028	1	6000	1	0	next
conjunction	positive	1	T_green	hit	J	5016	2	7392363	1	5167	1	0	next
conjunction	negative	1	Null	hit	F	7957	2	7422865	1	8001	1	0	next
conjunction	negative	1	Null	hit	F	9180	2	7456201	1	9334	1	0	next
conjunction	positive	1	T_green	hit	J	8110	2	7490870	1	8167	1	0	next
conjunction	positive	1	T_green	hit	J	9010	2	7524372	1	9167	1	0	next
conjunction	positive	15	T_green	hit	J	11152	2	7558874	1	11334	1	0	next
conjunction	positive	5	T_green	hit	J	10802	2	7595543	1	11001	1	0	next
conjunction	negative	5	Null	hit	F	10469	2	7631879	1	10667	1	0	next
conjunction	negative	15	Null	hit	F	25024	2	7667881	1	25168	1	0	next
conjunction	positive	1	T_green	hit	J	5564	2	7718384	1	5667	1	0	next
conjunction	positive	30	T_green	hit	J	5603	2	7749386	1	5667	1	0	next
conjunction	positive	1	T_green	hit	J	4840	2	7780388	1	5000	1	0	next
conjunction	negative	5	Null	hit	F	12748	2	7810723	1	12834	1	0	next
conjunction	positive	15	T_green	hit	J	16818	2	7848892	1	17001	1	0	next
conjunction	negative	5	Null	hit	F	7125	2	7891229	1	7167	1	0	next
conjunction	positive	30	T_green	hit	J	12545	2	7923731	1	12667	1	0	next
conjunction	negative	15	Null	hit	F	20619	2	7961733	1	20668	1	0	next
conjunction	negative	5	Null	hit	F	7901	2	8007736	1	8000	1	0	next
conjunction	positive	1	T_green	hit	J	6565	2	8041072	1	6667	1	0	next
conjunction	negative	1	Null	hit	F	7362	2	8073074	1	7501	1	0	next
conjunction	negative	5	Null	hit	F	8610	2	8105909	1	8667	1	0	next
conjunction	negative	15	Null	hit	F	21968	2	8139911	1	22168	1	0	next
conjunction	positive	1	T_green	hit	J	10464	2	8187414	1	10501	1	0	next
conjunction	negative	1	Null	hit	F	6471	2	8223250	1	6667	1	0	next
conjunction	positive	15	T_green	hit	J	14629	2	8255252	1	14668	1	0	next
conjunction	positive	1	T_green	hit	J	5026	2	8295254	1	5167	1	0	next
conjunction	positive	15	T_green	hit	J	4926	2	8325756	1	5000	1	0	next
conjunction	positive	30	T_green	hit	J	34911	2	8356092	1	35002	1	0	next
conjunction	negative	1	Null	hit	F	7054	2	8416429	1	7167	1	0	next
conjunction	negative	5	Null	hit	F	7837	2	8448931	1	8001	1	0	next
conjunction	negative	30	Null	hit	F	30663	2	8482266	1	30835	1	0	next
conjunction	positive	15	T_green	hit	J	10653	2	8538437	1	10834	1	0	next
conjunction	positive	30	T_green	hit	J	17203	2	8574606	1	17334	1	0	next
conjunction	positive	30	T_green	hit	J	10059	2	8617275	1	10167	1	0	next
conjunction	positive	30	T_green	hit	J	6074	2	8652777	1	6167	1	0	next
conjunction	negative	5	Null	hit	F	8975	2	8684279	1	9167	1	0	next
conjunction	negative	5	Null	hit	F	9190	2	8718782	1	9334	1	0	next
conjunction	positive	30	T_green	hit	J	16286	2	8753451	1	16334	1	0	next
conjunction	negative	30	Null	hit	F	23578	2	8795120	1	23668	1	0	next
conjunction	positive	15	T_green	incorrect	F	8975	2	8844123	1	9167	1	0	next
conjunction	positive	15	T_green	hit	J	17190	2	8878625	1	17334	1	0	next
conjunction	positive	15	T_green	hit	J	8603	2	8921295	1	8667	1	0	next
conjunction	negative	5	Null	hit	F	13642	2	8955297	1	13834	1	0	next
conjunction	negative	15	Null	hit	F	20393	2	8994466	1	20501	1	0	next
conjunction	positive	15	T_green	hit	J	20799	2	9040302	1	20835	1	0	next
conjunction	negative	15	Null	hit	F	14312	2	9086472	1	14501	1	0	next
conjunction	negative	5	Null	hit	F	8557	2	9126308	1	8667	1	0	next
conjunction	negative	15	Null	hit	F	14556	2	9160310	1	14668	1	0	next
conjunction	negative	30	Null	hit	F	26714	2	9200313	1	26835	1	0	next
conjunction	negative	30	Null	hit	F	21426	2	9252483	1	21501	1	0	next
conjunction	negative	15	Null	hit	F	14110	2	9299319	1	14168	1	0	next
conjunction	negative	30	Null	hit	F	21329	2	9338821	1	21501	1	0	next
conjunction	negative	5	Null	hit	F	7771	2	9385658	1	7834	1	0	next
conjunction	negative	30	Null	hit	F	22606	2	9418827	1	22668	1	0	next
conjunction	negative	15	Null	hit	F	9485	2	9466830	1	9667	1	0	next
conjunction	negative	30	Null	hit	F	12081	2	9501832	1	12167	1	0	next
conjunction	negative	15	Null	hit	F	7539	2	9539334	1	7667	1	0	next
conjunction	negative	30	Null	hit	F	8939	2	9572336	1	9001	1	0	next
conjunction	negative	30	Null	hit	F	20362	2	9606672	1	20501	1	0	next
conjunction	negative	15	Null	hit	F	7490	2	9652508	1	7667	1	0	next
conjunction	negative	30	Null	hit	F	7928	2	9685510	1	8001	1	0	next
conjunction	negative	30	Null	hit	F	21280	2	10239213	1	21335	1	0	next
conjunction	positive	5	T_green	hit	J	13173	2	10285882	1	13334	1	0	next
conjunction	negative	15	Null	hit	F	13542	2	10324551	1	13668	1	0	next
conjunction	negative	1	Null	hit	F	8301	2	10363554	1	8334	1	0	next
conjunction	positive	1	T_green	hit	J	6154	2	10397223	1	6334	1	0	next
conjunction	positive	30	T_green	hit	J	17046	2	10428891	1	17168	1	0	next
conjunction	negative	5	Null	hit	F	6861	2	10471394	1	7000	1	0	next
conjunction	negative	1	Null	hit	F	8608	2	10503730	1	8667	1	0	next
conjunction	positive	5	T_green	hit	J	5329	2	10537732	1	5500	1	0	next
conjunction	positive	30	T_green	hit	J	24415	2	10568567	1	24502	1	0	next
conjunction	negative	1	Null	hit	F	8980	2	10618404	1	9167	1	0	next
conjunction	positive	1	T_green	hit	J	9998	2	10652906	1	10167	1	0	next
conjunction	positive	1	T_green	hit	J	13854	2	10688408	1	14001	1	0	next
conjunction	positive	5	T_green	hit	J	7164	2	10727744	1	7334	1	0	next
conjunction	positive	30	T_green	hit	J	13372	2	10760413	1	13501	1	0	next
conjunction	positive	1	T_green	hit	J	4937	2	10799249	1	5000	1	0	next
conjunction	positive	15	T_green	hit	J	6125	2	10829584	1	6167	1	0	next
conjunction	positive	1	T_green	hit	J	4065	2	10861086	1	4167	1	0	next
conjunction	negative	15	Null	hit	F	15520	2	10890588	1	15668	1	0	next
conjunction	negative	30	Null	hit	F	25560	2	10931590	1	25668	1	0	next
conjunction	positive	1	T_green	hit	J	6399	2	10982594	1	6500	1	0	next
conjunction	positive	1	T_green	hit	J	4644	2	11014429	1	4834	1	0	next
conjunction	negative	1	Null	incorrect	J	5835	2	11044598	1	6000	1	0	next
conjunction	negative	1	Null	hit	F	4577	2	11075933	1	4667	1	0	next
conjunction	negative	5	Null	hit	F	12346	2	11105935	1	12501	1	0	next
conjunction	negative	15	Null	hit	F	15464	2	11143771	1	15501	1	0	next
conjunction	negative	30	Null	hit	F	27431	2	11184607	1	27502	1	0	next
conjunction	negative	1	Null	hit	F	10593	2	11237443	1	10667	1	0	next
conjunction	negative	15	Null	hit	F	13633	2	11273446	1	13834	1	0	next
conjunction	positive	5	T_green	hit	J	9184	2	11312615	1	9334	1	0	next
conjunction	negative	30	Null	hit	F	9240	2	11347284	1	9334	1	0	next
conjunction	negative	1	Null	hit	F	6890	2	11381953	1	7000	1	0	next
conjunction	positive	5	T_green	hit	J	9915	2	11414288	1	10001	1	0	next
conjunction	negative	30	Null	hit	F	13461	2	11449624	1	13501	1	0	next
conjunction	negative	5	Null	hit	F	8065	2	11488459	1	8167	1	0	next
conjunction	positive	1	T_green	hit	J	8164	2	11521962	1	8334	1	0	next
conjunction	negative	5	Null	hit	F	6816	2	11555630	1	7000	1	0	next
conjunction	positive	5	T_green	hit	J	9359	2	11587966	1	9501	1	0	next
conjunction	negative	5	Null	hit	F	7168	2	11622801	1	7334	1	0	next
conjunction	negative	30	Null	incorrect	J	8898	2	11655470	1	9001	1	0	next
conjunction	negative	5	Null	hit	F	7042	2	11689806	1	7167	1	0	next
conjunction	negative	5	Null	hit	F	6383	2	11722308	1	6500	1	0	next
conjunction	positive	30	T_green	incorrect	F	24628	2	11754143	1	24668	1	0	next
conjunction	positive	1	T_green	hit	J	9024	2	11804146	1	9167	1	0	next
conjunction	negative	15	Null	hit	F	16286	2	11838649	1	16334	1	0	next
conjunction	negative	15	Null	hit	F	7576	2	11880318	1	7667	1	0	next
conjunction	positive	1	T_green	hit	J	6093	2	11913320	1	6167	1	0	next
conjunction	positive	1	T_green	hit	J	4511	2	11944822	1	4667	1	0	next
conjunction	positive	15	T_green	hit	J	6351	2	11974824	1	6500	1	0	next
conjunction	positive	30	T_green	hit	J	4598	2	12006659	1	4667	1	0	next
conjunction	negative	1	Null	hit	F	7078	2	12036661	1	7167	1	0	next
conjunction	negative	5	Null	hit	F	6735	2	12069163	1	6834	1	0	next
conjunction	negative	30	Null	hit	F	31365	2	12101332	1	31502	1	0	next
conjunction	negative	1	Null	hit	F	7972	2	12158169	1	8167	1	0	next
conjunction	negative	5	Null	hit	F	7750	2	12191671	1	7834	1	0	next
conjunction	negative	30	Null	hit	F	20500	2	12224840	1	20668	1	0	next
conjunction	positive	30	T_green	incorrect	F	8100	2	12270843	1	8167	1	0	next
conjunction	negative	5	Null	hit	F	10279	2	12304345	1	10334	1	0	next
conjunction	positive	15	T_green	incorrect	F	8850	2	12340014	1	9001	1	0	next
conjunction	negative	5	Null	hit	F	7158	2	12374350	1	7334	1	0	next
conjunction	negative	30	Null	hit	F	31290	2	12407018	1	31335	1	0	next
conjunction	positive	5	T_green	hit	J	8057	2	12463689	1	8167	1	0	next
conjunction	negative	30	Null	hit	F	19037	2	12497191	1	19168	1	0	next
conjunction	negative	5	Null	hit	F	11016	2	12541694	1	11167	1	0	next
conjunction	positive	15	T_green	hit	J	10514	2	12578196	1	10667	1	0	next
conjunction	positive	30	T_green	hit	J	15156	2	12614198	1	15334	1	0	next
conjunction	negative	5	Null	hit	F	6165	2	12654868	1	6334	1	0	next
conjunction	positive	1	T_green	hit	J	5695	2	12686536	1	5834	1	0	next
conjunction	negative	30	Null	hit	F	21251	2	12717705	1	21335	1	0	next
conjunction	negative	30	Null	hit	F	16663	2	12764375	1	16835	1	0	next
conjunction	positive	1	T_green	hit	J	5692	2	12806544	1	5834	1	0	next
conjunction	negative	5	Null	hit	F	7646	2	12837713	1	7834	1	0	next
conjunction	positive	30	T_green	hit	J	17357	2	12870881	1	17501	1	0	next
conjunction	positive	30	T_green	hit	J	16761	2	12913718	1	16834	1	0	next
conjunction	positive	30	T_green	hit	J	15873	2	12955887	1	16001	1	0	next
conjunction	positive	5	T_green	hit	J	5416	2	12997223	1	5500	1	0	next
conjunction	negative	1	Null	hit	F	11065	2	13028058	1	11167	1	0	next
conjunction	positive	5	T_green	incorrect	F	8645	2	13064561	1	8834	1	0	next
conjunction	positive	1	T_green	hit	J	9676	2	13098729	1	9834	1	0	next
conjunction	positive	15	T_green	hit	J	7308	2	13133898	1	7501	1	0	next
conjunction	negative	5	Null	hit	F	8713	2	13166734	1	8834	1	0	next
conjunction	negative	1	Null	hit	F	7667	2	13200903	1	7834	1	0	next
conjunction	negative	15	Null	hit	F	16578	2	13234072	1	16668	1	0	next
conjunction	positive	1	T_green	hit	J	7056	2	13276074	1	7167	1	0	next
conjunction	positive	1	T_green	hit	J	4795	2	13308576	1	4834	1	0	next
conjunction	negative	30	Null	hit	F	24228	2	13338745	1	24335	1	0	next
conjunction	positive	5	T_green	hit	J	17119	2	13388415	1	17168	1	0	next
conjunction	positive	30	T_green	hit	J	22295	2	13430917	1	22335	1	0	next
conjunction	negative	1	Null	hit	F	8388	2	13478587	1	8501	1	0	next
conjunction	positive	15	T_green	hit	J	21434	2	13512423	1	21501	1	0	next
conjunction	negative	1	Null	hit	F	6119	2	13559259	1	6167	1	0	next
conjunction	positive	15	T_green	hit	J	8694	2	13590761	1	8834	1	0	next
conjunction	positive	5	T_green	hit	J	8927	2	13624930	1	9001	1	0	next
conjunction	positive	15	T_green	hit	J	5955	2	13659265	1	6000	1	0	next
conjunction	negative	5	Null	hit	F	12219	2	13690601	1	12334	1	0	next
conjunction	negative	1	Null	hit	F	7832	2	13728270	1	8001	1	0	next
conjunction	positive	5	T_green	hit	J	8733	2	13761605	1	8834	1	0	next
conjunction	positive	30	T_green	hit	J	11686	2	13795774	1	11834	1	0	next
conjunction	negative	30	Null	hit	F	25244	2	13832943	1	25335	1	0	next
conjunction	positive	15	T_green	hit	J	12809	2	13883613	1	13001	1	0	next
conjunction	negative	30	Null	hit	F	18478	2	13921949	1	18668	1	0	next
conjunction	positive	15	T_green	hit	J	7275	2	13965952	1	7334	1	0	next
conjunction	negative	1	Null	hit	F	10446	2	13998621	1	10501	1	0	next
conjunction	negative	30	Null	hit	F	16690	2	14034456	1	16834	1	0	next
conjunction	positive	30	T_green	incorrect	F	8762	2	14076626	1	8834	1	0	next
conjunction	negative	15	Null	hit	F	15716	2	14110794	1	15834	1	0	next
conjunction	positive	30	T_green	hit	J	9111	2	14151964	1	9167	1	0	next
conjunction	negative	15	Null	hit	F	20204	2	14186466	1	20335	1	0	next
conjunction	negative	15	Null	hit	F	7017	2	14232135	1	7167	1	0	next
conjunction	positive	5	T_green	hit	J	7634	2	14264638	1	7667	1	0	next
conjunction	negative	15	Null	hit	F	11593	2	14297640	1	11667	1	0	next
conjunction	positive	30	T_green	hit	J	17633	2	14334642	1	17835	1	0	next
conjunction	negative	1	Null	hit	F	8226	2	14377812	1	8334	1	0	next
conjunction	negative	15	Null	hit	F	15356	2	14411480	1	15501	1	0	next
conjunction	positive	5	T_green	hit	J	7004	2	14452316	1	7167	1	0	next
conjunction	positive	15	T_green	incorrect	F	13539	2	14484818	1	13667	1	0	next
conjunction	positive	30	T_green	hit	J	21582	2	14523821	1	21668	1	0	next
conjunction	positive	5	T_green	hit	J	5778	2	14570824	1	5834	1	0	next
conjunction	negative	15	Null	hit	F	14130	2	14601993	1	14334	1	0	next
conjunction	negative	15	Null	hit	F	8064	2	14641662	1	8167	1	0	next
conjunction	negative	15	Null	hit	F	12964	2	14675164	1	13001	1	0	next
conjunction	positive	15	T_green	hit	J	10626	2	14713500	1	10667	1	0	next
conjunction	positive	15	T_green	hit	J	7743	2	14749502	1	7834	1	0	next
conjunction	positive	15	T_green	hit	J	15055	2	14782671	1	15168	1	0	next
conjunction	positive	5	T_green	hit	J	5115	2	14823173	1	5167	1	0	next
conjunction	negative	15	Null	hit	F	12531	2	14853675	1	12667	1	0	next
conjunction	positive	15	T_green	incorrect	F	10851	2	14891678	1	11001	1	0	next
conjunction	positive	15	T_green	hit	J	10038	2	14928014	1	10167	1	0	next
disjunction	positive	5	S_green	hit	J	26744	2	15561721	1	26835	1	0	next
disjunction	negative	30	Null	hit	F	17459	2	15613891	1	17501	1	0	next
disjunction	positive	1	X_blue	hit	J	8220	2	15656727	1	8334	1	0	next
disjunction	positive	1	X_blue	hit	J	4957	2	15690396	1	5000	1	0	next
disjunction	negative	5	Null	hit	F	15257	2	15720731	1	15334	1	0	next
disjunction	negative	5	Null	hit	F	9793	2	15761400	1	9834	1	0	next
disjunction	negative	15	Null	hit	F	10946	2	15796569	1	11001	1	0	next
disjunction	negative	30	Null	hit	F	24527	2	15832905	1	24668	1	0	next
disjunction	positive	30	X_blue	hit	J	7968	2	15882908	1	8167	1	0	next
disjunction	positive	1	S_brown	hit	J	7427	2	15916410	1	7500	1	0	next
disjunction	positive	15	S_green	hit	J	7394	2	15949246	1	7500	1	0	next
disjunction	positive	5	T_blue	hit	J	7356	2	15982081	1	7501	1	0	next
disjunction	positive	5	S_brown	hit	J	11161	2	16014917	1	11334	1	0	next
disjunction	positive	5	X_blue	hit	J	8255	2	16051586	1	8334	1	0	next
disjunction	negative	5	Null	hit	F	12345	2	16085255	1	12501	1	0	next
disjunction	positive	15	S_brown	hit	J	9871	2	16123090	1	10001	1	0	next
disjunction	negative	30	Null	hit	F	15337	2	16158426	1	15501	1	0	next
disjunction	positive	30	X_blue	hit	J	7301	2	16199262	1	7334	1	0	next
disjunction	positive	1	S_brown	hit	J	7116	2	16231931	1	7167	1	0	next
disjunction	positive	15	X_blue	hit	J	5970	2	16264433	1	6167	1	0	next
disjunction	negative	15	Null	hit	F	7912	2	16295935	1	8001	1	0	next
disjunction	positive	15	S_green	hit	J	7374	2	16329270	1	7501	1	0	next
disjunction	positive	30	S_brown	hit	J	5261	2	16362106	1	5334	1	0	next
disjunction	positive	15	S_green	hit	J	9633	2	16392774	1	9834	1	0	next
disjunction	positive	5	X_blue	hit	J	6946	2	16427943	1	7000	1	0	next
disjunction	positive	15	S_brown	hit	J	6932	2	16460279	1	7000	1	0	next
disjunction	negative	15	Null	hit	F	12195	2	16492614	1	12334	1	0	next
disjunction	negative	30	Null	hit	F	21888	2	16530283	1	22001	1	0	next
disjunction	positive	5	X_blue	hit	J	7032	2	16577619	1	7167	1	0	next
disjunction	negative	15	Null	hit	F	8133	2	16610121	1	8334	1	0	next
disjunction	negative	5	Null	incorrect	J	5823	2	16643790	1	6000	1	0	next
disjunction	positive	15	S_green	incorrect	F	6651	2	16675126	1	6834	1	0	next
disjunction	negative	30	Null	hit	F	20400	2	16707294	1	20501	1	0	next
disjunction	negative	1	Null	hit	F	19051	2	16753131	1	19168	1	0	next
disjunction	negative	15	Null	hit	F	10387	2	16797633	1	10501	1	0	next
disjunction	negative	15	Null	hit	F	9595	2	16833469	1	9667	1	0	next
disjunction	negative	1	Null	hit	F	8510	2	16868471	1	8667	1	0	next
disjunction	positive	5	S_brown	hit	J	7149	2	16902474	1	7334	1	0	next
disjunction	negative	5	Null	hit	F	7761	2	16935142	1	7834	1	0	next
disjunction	negative	1	Null	hit	F	8671	2	16968311	1	8834	1	0	next
disjunction	positive	30	T_blue	hit	J	12904	2	17002480	1	13001	1	0	next
disjunction	positive	30	T_blue	hit	J	5926	2	17040816	1	6000	1	0	next
disjunction	negative	30	Null	hit	F	16835	2	17072151	1	17001	1	0	next
disjunction	negative	1	Null	hit	F	10820	2	17114487	1	11001	1	0	next
disjunction	positive	30	S_green	hit	J	12887	2	17150823	1	13001	1	0	next
disjunction	negative	5	Null	hit	F	7991	2	17189159	1	8167	1	0	next
disjunction	positive	5	X_blue	hit	J	7130	2	17222661	1	7334	1	0	next
disjunction	positive	15	T_blue	hit	J	6779	2	17255330	1	6834	1	0	next
disjunction	negative	1	Null	hit	F	7411	2	17287498	1	7500	1	0	next
disjunction	negative	15	Null	hit	F	12177	2	17320334	1	12334	1	0	next
disjunction	negative	30	Null	hit	F	15790	2	17358003	1	15834	1	0	next
disjunction	positive	1	X_blue	hit	J	6941	2	17399172	1	7000	1	0	next
disjunction	negative	5	Null	hit	F	10766	2	17431508	1	10834	1	0	next
disjunction	negative	30	Null	hit	F	14281	2	17467677	1	14334	1	0	next
disjunction	negative	5	Null	hit	F	7250	2	17507346	1	7334	1	0	next
disjunction	positive	1	S_brown	hit	J	7542	2	17540014	1	7667	1	0	next
disjunction	negative	30	Null	hit	F	11823	2	17573017	1	12001	1	0	next
disjunction	positive	30	T_blue	hit	J	8090	2	17610352	1	8167	1	0	next
disjunction	negative	30	Null	hit	F	6746	2	17643854	1	6834	1	0	next
disjunction	negative	1	Null	hit	F	7697	2	17676023	1	7834	1	0	next
disjunction	positive	15	T_blue	hit	J	6688	2	17709192	1	6834	1	0	next
disjunction	negative	15	Null	hit	F	7165	2	17741361	1	7334	1	0	next
disjunction	negative	1	Null	hit	F	6178	2	17774030	1	6334	1	0	next
disjunction	positive	30	S_brown	hit	J	6507	2	17805698	1	6667	1	0	next
disjunction	positive	30	T_blue	hit	J	4744	2	17837700	1	4834	1	0	next
disjunction	negative	1	Null	hit	F	7215	2	17867869	1	7334	1	0	next
disjunction	negative	1	Null	incorrect	J	4792	2	17900538	1	4834	1	0	next
disjunction	negative	1	Null	hit	F	5980	2	17930706	1	6167	1	0	next
disjunction	positive	30	X_blue	hit	J	5679	2	17962208	1	5834	1	0	next
disjunction	negative	30	Null	hit	F	10672	2	17993377	1	10834	1	0	next
disjunction	positive	15	X_blue	hit	J	5542	2	18029546	1	5667	1	0	next
disjunction	negative	30	Null	hit	F	8783	2	18060548	1	8834	1	0	next
disjunction	positive	1	X_blue	hit	J	5176	2	18094717	1	5334	1	0	next
disjunction	negative	30	Null	hit	F	10186	2	18125385	1	10334	1	0	next
disjunction	positive	30	S_green	hit	J	6518	2	18161054	1	6667	1	0	next
disjunction	positive	30	X_blue	hit	J	6355	2	18193057	1	6500	1	0	next
disjunction	negative	30	Null	hit	F	6202	2	18224892	1	6334	1	0	next
disjunction	positive	15	X_blue	hit	J	5577	2	18256561	1	5667	1	0	next
disjunction	positive	15	T_blue	hit	J	6573	2	18287563	1	6667	1	0	next
disjunction	positive	30	S_green	hit	J	8976	2	18319565	1	9167	1	0	next
disjunction	negative	30	Null	hit	F	6793	2	18354067	1	6834	1	0	next
disjunction	negative	15	Null	hit	F	11903	2	18386235	1	12001	1	0	next
disjunction	positive	15	S_green	incorrect	F	8812	2	18423571	1	9001	1	0	next
disjunction	positive	15	T_blue	hit	J	6317	2	18457907	1	6500	1	0	next
disjunction	positive	1	S_green	hit	J	4717	2	18489742	1	4834	1	0	next
disjunction	negative	1	Null	hit	F	8633	2	18519911	1	8834	1	0	next
disjunction	negative	5	Null	hit	F	10144	2	18554080	1	10334	1	0	next
disjunction	positive	30	T_blue	hit	J	7915	2	18589749	1	8000	1	0	next
disjunction	negative	1	Null	hit	F	7059	2	18623084	1	7167	1	0	next
disjunction	negative	30	Null	hit	F	21602	2	18655586	1	21668	1	0	next
disjunction	negative	5	Null	hit	F	6604	2	18702589	1	6667	1	0	next
disjunction	negative	1	Null	hit	F	4837	2	18734591	1	5000	1	0	next
disjunction	positive	5	T_blue	hit	J	5539	2	18764926	1	5667	1	0	next
disjunction	positive	15	X_blue	hit	J	7180	2	18795928	1	7334	1	0	next
disjunction	positive	30	S_green	hit	J	13711	2	18828597	1	13834	1	0	next
disjunction	positive	1	S_brown	incorrect	F	7825	2	18867766	1	8000	1	0	next
disjunction	negative	15	Null	hit	F	22171	2	18901102	1	22335	1	0	next
disjunction	positive	5	T_blue	hit	J	6822	2	18948772	1	7000	1	0	next
disjunction	positive	15	S_brown	hit	J	7928	2	18981107	1	8000	1	0	next
disjunction	positive	5	S_brown	hit	J	8674	2	19014443	1	8834	1	0	next
disjunction	positive	1	S_green	hit	J	4745	2	19048611	1	4834	1	0	next
disjunction	negative	15	Null	hit	F	13137	2	19078780	1	13334	1	0	next
disjunction	negative	5	Null	hit	F	8230	2	19117449	1	8334	1	0	next
disjunction	positive	5	T_blue	hit	J	7520	2	19151118	1	7667	1	0	next
disjunction	positive	1	S_green	hit	J	7001	2	19184120	1	7167	1	0	next
disjunction	positive	5	S_brown	hit	J	8418	2	19216622	1	8501	1	0	next
disjunction	positive	5	S_brown	hit	J	12181	2	19250458	1	12334	1	0	next
disjunction	negative	15	Null	hit	F	16437	2	19288127	1	16501	1	0	next
disjunction	negative	5	Null	hit	F	8197	2	19329963	1	8334	1	0	next
disjunction	negative	15	Null	hit	F	14854	2	19363632	1	15001	1	0	next
disjunction	positive	30	T_blue	hit	J	7958	2	19403967	1	8001	1	0	next
disjunction	positive	1	T_blue	incorrect	F	25022	2	19437303	1	25168	1	0	next
disjunction	positive	1	T_blue	hit	J	4758	2	19487806	1	4834	1	0	next
disjunction	positive	5	S_brown	hit	J	10754	2	19517975	1	10834	1	0	next
disjunction	negative	1	Null	hit	F	6588	2	19554144	1	6667	1	0	next
disjunction	positive	1	S_green	hit	J	9462	2	19586146	1	9501	1	0	next
disjunction	negative	5	Null	hit	F	12710	2	19620981	1	12834	1	0	next
disjunction	positive	5	S_green	hit	J	6384	2	19659150	1	6500	1	0	next
disjunction	positive	1	S_green	hit	J	5265	2	19690986	1	5334	1	0	next
disjunction	negative	1	Null	hit	F	7559	2	19721655	1	7667	1	0	next
disjunction	positive	1	S_brown	incorrect	F	8476	2	19754657	1	8667	1	0	next
disjunction	negative	1	Null	hit	F	7756	2	19788659	1	7834	1	0	next
disjunction	negative	5	Null	hit	F	12345	2	19821828	1	12501	1	0	next
disjunction	negative	15	Null	hit	F	13711	2	19859663	1	13834	1	0	next
disjunction	negative	5	Null	hit	F	11184	2	19898833	1	11334	1	0	next
disjunction	negative	15	Null	hit	F	6674	2	19935502	1	6834	1	0	next
disjunction	negative	15	Null	hit	F	12110	2	19967670	1	12167	1	0	next
disjunction	negative	5	Null	hit	F	7888	2	20005173	1	8001	1	0	next
disjunction	positive	30	S_brown	hit	J	15183	2	20442367	1	15334	1	0	next
disjunction	negative	5	Null	hit	F	9717	2	20483037	1	9834	1	0	next
disjunction	negative	15	Null	hit	F	7026	2	20518206	1	7167	1	0	next
disjunction	positive	5	T_blue	hit	J	8126	2	20550708	1	8167	1	0	next
disjunction	positive	5	S_green	hit	J	6306	2	20584210	1	6500	1	0	next
disjunction	positive	5	S_green	hit	J	4548	2	20616045	1	4667	1	0	next
disjunction	positive	5	S_brown	hit	J	8469	2	20646047	1	8501	1	0	next
disjunction	positive	30	S_brown	hit	J	5033	2	20679883	1	5167	1	0	next
disjunction	negative	5	Null	hit	F	8455	2	20710385	1	8501	1	0	next
disjunction	positive	1	S_brown	incorrect	F	5976	2	20744220	1	6167	1	0	next
disjunction	positive	5	X_blue	hit	J	6318	2	20775722	1	6500	1	0	next
disjunction	negative	30	Null	hit	F	15444	2	20807558	1	15501	1	0	next
disjunction	negative	30	Null	hit	F	17649	2	20848394	1	17834	1	0	next
disjunction	negative	5	Null	hit	F	8719	2	20891563	1	8834	1	0	next
disjunction	positive	15	S_brown	hit	J	6551	2	20925732	1	6667	1	0	next
disjunction	negative	1	Null	hit	F	11028	2	20957734	1	11167	1	0	next
disjunction	negative	1	Null	hit	F	5887	2	20994236	1	6000	1	0	next
disjunction	negative	15	Null	hit	F	12632	2	21025572	1	12667	1	0	next
disjunction	positive	1	T_blue	hit	J	8871	2	21063574	1	9001	1	0	next
disjunction	negative	30	Null	hit	F	8140	2	21097910	1	8334	1	0	next
disjunction	positive	5	X_blue	hit	J	12711	2	21131578	1	12834	1	0	next
disjunction	positive	30	T_blue	hit	J	6699	2	21169747	1	6834	1	0	next
disjunction	positive	5	X_blue	hit	J	4773	2	21201916	1	4834	1	0	next
disjunction	negative	5	Null	hit	F	7884	2	21232085	1	8001	1	0	next
disjunction	negative	30	Null	hit	F	6711	2	21265420	1	6834	1	0	next
disjunction	negative	1	Null	hit	F	5744	2	21297589	1	5834	1	0	next
disjunction	positive	1	S_brown	hit	J	15216	2	21328758	1	15334	1	0	next
disjunction	negative	5	Null	hit	F	7346	2	21369427	1	7500	1	0	next
disjunction	positive	30	S_green	incorrect	F	9551	2	21402262	1	9667	1	0	next
disjunction	negative	5	Null	hit	F	8469	2	21437265	1	8501	1	0	next
disjunction	positive	15	S_green	hit	J	7278	2	21471100	1	7334	1	0	next
disjunction	negative	15	Null	hit	F	11891	2	21503769	1	12001	1	0	next
disjunction	positive	5	T_blue	hit	J	6396	2	21541105	1	6500	1	0	next
disjunction	positive	30	T_blue	hit	J	7840	2	21572940	1	8000	1	0	next
disjunction	negative	1	Null	hit	F	12743	2	21606275	1	12834	1	0	next
disjunction	positive	5	X_blue	hit	J	5615	2	21644445	1	5667	1	0	next
disjunction	positive	30	T_blue	hit	J	5179	2	21675447	1	5334	1	0	next
disjunction	negative	15	Null	hit	F	10187	2	21706115	1	10334	1	0	next
disjunction	positive	5	S_brown	hit	J	7322	2	21741784	1	7501	1	0	next
disjunction	positive	30	S_brown	hit	J	11446	2	21774620	1	11501	1	0	next
disjunction	positive	30	T_blue	hit	J	14132	2	21811455	1	14334	1	0	next
disjunction	positive	1	S_green	hit	J	8061	2	21851125	1	8167	1	0	next
disjunction	positive	15	S_green	hit	J	5605	2	21884627	1	5667	1	0	next
disjunction	negative	5	Null	hit	F	12519	2	21915629	1	12668	1	0	next
disjunction	negative	15	Null	hit	F	16440	2	21953631	1	16501	1	0	next
disjunction	negative	5	Null	hit	F	13325	2	21995467	1	13501	1	0	next
disjunction	positive	5	S_brown	hit	J	19131	2	22034303	1	19335	1	0	next
disjunction	negative	15	Null	hit	F	12061	2	22078973	1	12167	1	0	next
disjunction	negative	15	Null	hit	F	7841	2	22116475	1	8001	1	0	next
disjunction	negative	15	Null	hit	F	8102	2	22149810	1	8167	1	0	next
disjunction	negative	30	Null	hit	F	9806	2	22183313	1	10001	1	0	next
disjunction	positive	15	X_blue	hit	J	7269	2	22218648	1	7334	1	0	next
disjunction	negative	15	Null	hit	F	13958	2	22251317	1	14001	1	0	next
disjunction	negative	1	Null	hit	F	7424	2	22290653	1	7501	1	0	next
disjunction	negative	5	Null	hit	F	9632	2	22323488	1	9667	1	0	next
disjunction	positive	1	X_blue	hit	J	6952	2	22358490	1	7000	1	0	next
disjunction	negative	1	Null	hit	F	8534	2	22390826	1	8667	1	0	next
disjunction	positive	15	S_green	incorrect	F	14531	2	22424828	1	14668	1	0	next
disjunction	positive	15	S_brown	hit	J	8130	2	22464831	1	8167	1	0	next
disjunction	positive	5	S_green	hit	J	5028	2	22498333	1	5167	1	0	next
disjunction	positive	30	S_green	hit	J	13408	2	22528835	1	13501	1	0	next
disjunction	negative	1	Null	incorrect	J	6735	2	22567671	1	6834	1	0	next
disjunction	negative	1	Null	hit	F	6248	2	22599839	1	6334	1	0	next
disjunction	negative	30	Null	hit	F	18899	2	22631508	1	19001	1	0	next
disjunction	negative	1	Null	hit	F	13284	2	22675844	1	13334	1	0	next
disjunction	negative	5	Null	hit	F	7094	2	22714513	1	7167	1	0	next
disjunction	positive	15	S_brown	hit	J	8995	2	22747015	1	9167	1	0	next
disjunction	negative	30	Null	hit	F	26012	2	22781518	1	26168	1	0	next
disjunction	positive	1	S_green	hit	J	6674	2	22833021	1	6834	1	0	next
disjunction	negative	15	Null	hit	F	9063	2	22865190	1	9167	1	0	next
disjunction	positive	5	T_blue	hit	J	7521	2	22899692	1	7667	1	0	next
disjunction	negative	5	Null	hit	F	7799	2	22932694	1	8001	1	0	next
disjunction	negative	5	Null	hit	F	7106	2	22966029	1	7167	1	0	next
disjunction	negative	1	Null	hit	F	7564	2	22998532	1	7667	1	0	next
disjunction	positive	30	S_brown	hit	J	13442	2	23031534	1	13501	1	0	next
disjunction	negative	1	Null	hit	F	6447	2	23070369	1	6500	1	0	next
disjunction	positive	15	T_blue	hit	J	7572	2	23102205	1	7667	1	0	next
disjunction	positive	15	X_blue	hit	J	6094	2	23135207	1	6167	1	0	next
disjunction	negative	30	Null	hit	F	8029	2	23166709	1	8167	1	0	next
disjunction	positive	30	T_blue	hit	J	17088	2	23200211	1	17168	1	0	next
disjunction	negative	1	Null	hit	F	7867	2	23242714	1	8000	1	0	next
disjunction	positive	5	T_blue	hit	J	9574	2	23276049	1	9667	1	0	next
disjunction	negative	30	Null	hit	F	8494	2	23311052	1	8667	1	0	next
disjunction	positive	30	T_blue	hit	J	7450	2	23345054	1	7500	1	0	next
disjunction	positive	15	X_blue	hit	J	5659	2	23377889	1	5834	1	0	next
disjunction	negative	30	Null	hit	F	8889	2	23409058	1	9001	1	0	next
disjunction	positive	15	S_green	hit	J	8318	2	23443393	1	8501	1	0	next
disjunction	negative	5	Null	hit	F	8080	2	23477229	1	8167	1	0	next
disjunction	negative	1	Null	hit	F	9141	2	23510731	1	9334	1	0	next
disjunction	negative	30	Null	hit	F	18952	2	23545400	1	19001	1	0	next
disjunction	positive	5	S_brown	hit	J	12055	2	23589736	1	12167	1	0	next
disjunction	negative	30	Null	hit	F	15991	2	23627239	1	16168	1	0	next
disjunction	negative	15	Null	hit	F	9690	2	23668741	1	9834	1	0	next
disjunction	negative	1	Null	hit	F	9245	2	23703910	1	9334	1	0	next
disjunction	positive	5	X_blue	hit	J	7534	2	23738579	1	7667	1	0	next
disjunction	negative	1	Null	hit	F	8296	2	23771581	1	8334	1	0	next
disjunction	positive	15	S_brown	hit	J	10468	2	23805250	1	10501	1	0	next
disjunction	positive	30	T_blue	hit	J	6633	2	23841086	1	6834	1	0	next
disjunction	positive	1	T_blue	hit	J	5667	2	23873254	1	5834	1	0	next
disjunction	positive	1	S_brown	hit	J	9855	2	23904423	1	10001	1	0	next
disjunction	negative	15	Null	hit	F	9399	2	23939759	1	9501	1	0	next
disjunction	positive	1	X_blue	hit	J	7364	2	23974594	1	7501	1	0	next
disjunction	negative	1	Null	hit	F	10531	2	24007430	1	10667	1	0	next
disjunction	positive	15	S_green	hit	J	8611	2	24043432	1	8667	1	0	next
disjunction	positive	30	X_blue	hit	J	6930	2	24077434	1	7000	1	0	next
disjunction	negative	30	Null	hit	F	16996	2	24109770	1	17168	1	0	next
disjunction	positive	1	S_green	hit	J	6493	2	24152272	1	6667	1	0	next
disjunction	negative	5	Null	hit	F	6971	2	24184274	1	7167	1	0	next
disjunction	positive	30	S_green	hit	J	10628	2	24216776	1	10667	1	0	next
disjunction	negative	30	Null	hit	F	14471	2	24252779	1	14668	1	0	next
disjunction	positive	30	X_blue	hit	J	7588	2	24292781	1	7667	1	0	next
disjunction	negative	5	Null	hit	F	7708	2	24325783	1	7834	1	0	next
disjunction	positive	15	T_blue	hit	J	6220	2	24358952	1	6334	1	0	next
disjunction	negative	5	Null	hit	F	8312	2	24390621	1	8501	1	0	next
disjunction	negative	15	Null	hit	F	12877	2	24424456	1	13001	1	0	next
disjunction	negative	30	Null	hit	F	17904	2	24462792	1	18001	1	0	next
disjunction	negative	30	Null	hit	F	15524	2	24506128	1	15668	1	0	next
disjunction	negative	15	Null	hit	F	9566	2	24547131	1	9667	1	0	next
disjunction	positive	15	S_green	hit	J	13922	2	24582133	1	14001	1	0	next
disjunction	negative	15	Null	hit	F	15231	2	24621469	1	15334	1	0	next
disjunction	positive	15	X_blue	hit	J	6558	2	24662138	1	6667	1	0	next
disjunction	positive	1	S_green	hit	J	5759	2	24694140	1	5834	1	0	next
disjunction	positive	1	X_blue	hit	J	5309	2	24725309	1	5500	1	0	next
disjunction	positive	1	S_brown	hit	J	8717	2	24756144	1	8834	1	0	next
disjunction	negative	15	Null	hit	F	10230	2	24790313	1	10334	1	0	next
disjunction	positive	1	X_blue	hit	J	6562	2	24825982	1	6667	1	0	next
disjunction	positive	1	X_blue	hit	J	4478	2	24857984	1	4667	1	0	next
disjunction	positive	1	T_blue	hit	J	4722	2	24887986	1	4834	1	0	next
conjunction	negative	1	Null	hit	F	13617	2	26068395	1	13668	1	0	next
conjunction	positive	1	T_green	hit	J	11097	2	26107398	1	11167	1	0	next
conjunction	positive	1	T_green	hit	J	4515	2	26143900	1	4667	1	0	next
conjunction	positive	30	T_green	hit	J	6994	2	26173902	1	7167	1	0	next
conjunction	negative	15	Null	hit	F	11772	2	26206404	1	11834	1	0	next
conjunction	positive	30	T_green	hit	J	7566	2	26243573	1	7667	1	0	next
conjunction	negative	1	Null	hit	F	6085	2	26276575	1	6167	1	0	next
conjunction	positive	1	T_green	hit	J	6744	2	26308077	1	6834	1	0	next
conjunction	negative	1	Null	hit	F	8173	2	26340246	1	8334	1	0	next
conjunction	negative	30	Null	hit	F	18507	2	26373915	1	18668	1	0	next
conjunction	negative	30	Null	hit	F	19467	2	26417918	1	19501	1	0	next
conjunction	positive	1	T_green	hit	J	6788	2	26462754	1	6834	1	0	next
conjunction	negative	5	Null	hit	F	6626	2	26494923	1	6667	1	0	next
conjunction	negative	5	Null	hit	F	5823	2	26526925	1	6000	1	0	next
conjunction	positive	1	T_green	hit	J	5845	2	26558260	1	6000	1	0	next
conjunction	positive	5	T_green	hit	J	9873	2	26589595	1	10001	1	0	next
conjunction	negative	1	Null	hit	F	16780	2	26624931	1	16834	1	0	next
conjunction	negative	1	Null	hit	F	6291	2	26667100	1	6334	1	0	next
conjunction	positive	1	T_green	hit	J	7259	2	26698769	1	7334	1	0	next
conjunction	positive	5	T_green	incorrect	F	6590	2	26731438	1	6667	1	0	next
conjunction	positive	15	T_green	hit	J	13953	2	26763440	1	14001	1	0	next
conjunction	positive	5	T_green	hit	J	10454	2	26802776	1	10501	1	0	next
conjunction	positive	1	T_green	hit	J	4222	2	26838611	1	4334	1	0	next
conjunction	positive	5	T_green	hit	J	6074	2	26868280	1	6167	1	0	next
conjunction	positive	1	T_green	hit	J	5131	2	26899782	1	5167	1	0	next
conjunction	negative	1	Null	hit	F	8552	2	26930284	1	8667	1	0	next
conjunction	negative	5	Null	hit	F	11673	2	26964286	1	11834	1	0	next
conjunction	positive	15	T_green	hit	J	9383	2	27001455	1	9501	1	0	next
conjunction	positive	15	T_green	hit	J	9750	2	27036291	1	9834	1	0	next
conjunction	negative	1	Null	hit	F	6422	2	27071460	1	6500	1	0	next
conjunction	negative	1	Null	hit	F	7067	2	27103295	1	7167	1	0	next
conjunction	positive	30	T_green	incorrect	F	23845	2	27135797	1	24001	1	0	next
conjunction	negative	15	Null	hit	F	17390	2	27185134	1	17501	1	0	next
conjunction	negative	30	Null	hit	F	18871	2	27227970	1	19001	1	0	next
conjunction	negative	5	Null	hit	F	10698	2	27272306	1	10834	1	0	next
conjunction	negative	30	Null	hit	F	21089	2	27308475	1	21168	1	0	next
conjunction	negative	5	Null	hit	F	12028	2	27354978	1	12167	1	0	next
conjunction	negative	15	Null	hit	F	13888	2	27392480	1	14001	1	0	next
conjunction	positive	15	T_green	hit	J	9756	2	27431816	1	9834	1	0	next
conjunction	negative	30	Null	hit	F	18426	2	27466985	1	18501	1	0	next
conjunction	positive	15	T_green	hit	J	11230	2	27510821	1	11334	1	0	next
conjunction	negative	30	Null	hit	F	25443	2	27547490	1	25502	1	0	next
conjunction	positive	30	T_green	hit	J	10129	2	27598327	1	10167	1	0	next
conjunction	negative	15	Null	hit	F	13987	2	27633829	1	14168	1	0	next
conjunction	negative	15	Null	incorrect	J	9522	2	27673332	1	9667	1	0	next
conjunction	positive	5	T_green	hit	J	5082	2	27708334	1	5167	1	0	next
conjunction	negative	1	Null	hit	F	6102	2	27738836	1	6167	1	0	next
conjunction	positive	15	T_green	hit	J	7880	2	27770338	1	8001	1	0	next
conjunction	negative	15	Null	hit	F	17588	2	27803673	1	17668	1	0	next
conjunction	positive	30	T_green	hit	J	12984	2	27846676	1	13168	1	0	next
conjunction	negative	5	Null	hit	F	7762	2	27885179	1	7834	1	0	next
conjunction	negative	15	Null	hit	F	16994	2	27918347	1	17168	1	0	next
conjunction	negative	5	Null	hit	F	8253	2	27960850	1	8334	1	0	next
conjunction	negative	5	Null	hit	F	8022	2	27994519	1	8167	1	0	next
conjunction	negative	30	Null	hit	F	23164	2	28028021	1	23335	1	0	next
conjunction	positive	15	T_green	hit	J	8893	2	28076691	1	9001	1	0	next
conjunction	negative	15	Null	hit	F	15038	2	28111026	1	15168	1	0	next
conjunction	negative	5	Null	hit	F	7981	2	28151529	1	8167	1	0	next
conjunction	positive	15	T_green	hit	J	13836	2	28185031	1	14001	1	0	next
conjunction	negative	1	Null	hit	F	7943	2	28224367	1	8001	1	0	next
conjunction	negative	15	Null	hit	F	17969	2	28257702	1	18001	1	0	next
conjunction	positive	30	T_green	hit	J	16233	2	28301039	1	16334	1	0	next
conjunction	negative	15	Null	hit	F	11203	2	28342708	1	11334	1	0	next
conjunction	negative	30	Null	hit	F	15338	2	28379377	1	15501	1	0	next
conjunction	positive	5	T_green	hit	J	4901	2	28420213	1	5000	1	0	next
conjunction	negative	30	Null	hit	F	23685	2	28450548	1	23835	1	0	next
conjunction	negative	15	Null	hit	F	10037	2	28499718	1	10167	1	0	next
conjunction	positive	30	T_green	hit	J	12779	2	28535220	1	12834	1	0	next
conjunction	negative	15	Null	hit	F	10608	2	28573389	1	10667	1	0	next
conjunction	negative	15	Null	hit	F	11890	2	28609392	1	12001	1	0	next
conjunction	positive	1	T_green	hit	J	7670	2	28646727	1	7834	1	0	next
conjunction	positive	15	T_green	hit	J	14507	2	28679896	1	14668	1	0	next
conjunction	negative	5	Null	hit	F	9388	2	28719899	1	9501	1	0	next
conjunction	negative	30	Null	hit	F	15668	2	28754734	1	15834	1	0	next
conjunction	negative	5	Null	hit	F	7622	2	28795904	1	7667	1	0	next
conjunction	positive	30	T_green	hit	J	6617	2	28828906	1	6667	1	0	next
conjunction	positive	1	T_green	hit	J	4535	2	28860908	1	4667	1	0	next
conjunction	negative	1	Null	hit	F	7337	2	28890910	1	7500	1	0	next
conjunction	positive	5	T_green	hit	J	4102	2	28923745	1	4167	1	0	next
conjunction	negative	5	Null	hit	F	6603	2	28953247	1	6667	1	0	next
conjunction	positive	5	T_green	hit	J	7557	2	28985249	1	7667	1	0	next
conjunction	positive	30	T_green	hit	J	9919	2	29018251	1	10001	1	0	next
conjunction	positive	15	T_green	hit	J	5945	2	29053587	1	6000	1	0	next
conjunction	positive	5	T_green	hit	J	10129	2	29084922	1	10167	1	0	next
conjunction	positive	5	T_green	hit	J	11905	2	29120424	1	12001	1	0	next
conjunction	positive	30	T_green	hit	J	11052	2	29157760	1	11167	1	0	next
conjunction	positive	5	T_green	hit	J	4949	2	29194263	1	5000	1	0	next
conjunction	positive	30	T_green	hit	J	7895	2	29224598	1	8001	1	0	next
conjunction	negative	1	Null	hit	F	8002	2	29257933	1	8167	1	0	next
conjunction	positive	5	T_green	hit	J	7458	2	29291435	1	7500	1	0	next
conjunction	negative	30	Null	hit	F	32068	2	29324271	1	32169	1	0	next
conjunction	positive	30	T_green	hit	J	8965	2	29381775	1	9001	1	0	next
conjunction	positive	5	T_green	incorrect	F	8390	2	29416110	1	8501	1	0	next
conjunction	positive	30	T_green	hit	J	17916	2	29449946	1	18001	1	0	next
conjunction	positive	1	T_green	hit	J	5620	2	29493282	1	5667	1	0	next
conjunction	positive	15	T_green	hit	J	13820	2	29524284	1	14001	1	0	next
conjunction	negative	15	Null	hit	F	10965	2	29563620	1	11167	1	0	next
conjunction	positive	1	T_green	hit	J	11100	2	29600122	1	11167	1	0	next
conjunction	positive	5	T_green	hit	J	6441	2	29636624	1	6500	1	0	next
conjunction	negative	5	Null	hit	F	9327	2	29668460	1	9501	1	0	next
conjunction	positive	1	T_green	hit	J	9050	2	29703295	1	9167	1	0	next
conjunction	positive	1	T_green	hit	J	6552	2	29737797	1	6667	1	0	next
conjunction	negative	1	Null	hit	F	8310	2	29769800	1	8500	1	0	next
conjunction	negative	5	Null	hit	F	8552	2	29803635	1	8667	1	0	next
conjunction	negative	5	Null	hit	F	8634	2	29837637	1	8834	1	0	next
conjunction	negative	30	Null	hit	F	19108	2	29871806	1	19168	1	0	next
conjunction	positive	15	T_green	hit	J	8522	2	29916309	1	8667	1	0	next
conjunction	positive	30	T_green	hit	J	16760	2	29950311	1	16834	1	0	next
conjunction	positive	1	T_green	hit	J	4994	2	29992480	1	5167	1	0	next
conjunction	negative	15	Null	hit	F	19930	2	30022982	1	20001	1	0	next
conjunction	negative	5	Null	hit	F	10596	2	30068319	1	10667	1	0	next
conjunction	positive	1	T_green	hit	J	9956	2	30104321	1	10001	1	0	next
conjunction	negative	1	Null	hit	F	8541	2	30139657	1	8667	1	0	next
conjunction	negative	1	Null	hit	F	7821	2	30173659	1	8001	1	0	next
conjunction	positive	15	T_green	hit	J	10006	2	30206994	1	10167	1	0	next
conjunction	positive	30	T_green	hit	J	16741	2	30242496	1	16834	1	0	next
conjunction	positive	5	T_green	hit	J	5613	2	30284666	1	5667	1	0	next
conjunction	negative	15	Null	hit	F	17012	2	30315668	1	17168	1	0	next
conjunction	negative	1	Null	hit	F	6351	2	30358171	1	6500	1	0	next
conjunction	negative	30	Null	hit	F	19155	2	30390006	1	19335	1	0	next
conjunction	positive	5	T_green	hit	J	8731	2	30434675	1	8834	1	0	next
conjunction	negative	30	Null	hit	F	19039	2	30468844	1	19168	1	0	next
conjunction	negative	30	Null	hit	F	19177	2	30513347	1	19335	1	0	next
conjunction	negative	30	Null	hit	F	15953	2	30558017	1	16001	1	0	next
conjunction	positive	15	T_green	hit	J	11094	2	30599353	1	11167	1	0	next
conjunction	positive	15	T_green	hit	J	7075	2	30635855	1	7167	1	0	next
conjunction	positive	30	T_green	hit	J	21772	2	30668357	1	21835	1	0	next
conjunction	positive	15	T_green	incorrect	F	17005	2	30715527	1	17168	1	0	next
