Target_Type	Trial_Type	Display_Size	Target	Response	Key_press	RT	Uncertainty	Time	Uncertainty	Duration	Uncertainty	ReqTime	ReqDur
disjunction	negative	30	Null	hit	F	29841	2	134397	1	30002	1	0	next
disjunction	negative	15	Null	hit	F	15463	2	189734	1	15668	1	0	next
disjunction	negative	1	Null	hit	F	12064	2	230737	1	12167	1	0	next
disjunction	negative	15	Null	hit	F	12481	2	268239	1	12668	1	0	next
disjunction	positive	1	T_blue	incorrect	F	15120	2	306242	1	15168	1	0	next
disjunction	positive	5	T_blue	hit	J	7736	2	346744	1	7834	1	0	next
disjunction	positive	5	S_green	hit	J	11048	2	379913	1	11167	1	0	next
disjunction	positive	5	T_blue	hit	J	7190	2	416415	1	7334	1	0	next
disjunction	negative	1	Null	hit	F	12121	2	449084	1	12167	1	0	next
disjunction	positive	15	X_blue	hit	J	7099	2	486586	1	7167	1	0	next
disjunction	positive	5	T_blue	hit	J	6919	2	519089	1	7000	1	0	next
disjunction	positive	5	S_green	hit	J	10264	2	551424	1	10334	1	0	next
disjunction	positive	30	T_blue	hit	J	6275	2	587093	1	6334	1	0	next
disjunction	negative	15	Null	hit	F	24686	2	618762	1	24835	1	0	next
disjunction	negative	1	Null	hit	F	17877	2	668931	1	18001	1	0	next
disjunction	negative	5	Null	hit	F	17743	2	712268	1	17834	1	0	next
disjunction	positive	1	S_green	incorrect	F	20334	2	755437	1	20501	1	0	next
disjunction	negative	1	Null	hit	F	8740	2	801273	1	8834	1	0	next
disjunction	negative	5	Null	hit	F	9130	2	835442	1	9167	1	0	next
disjunction	positive	30	X_blue	hit	J	6151	2	869944	1	6334	1	0	next
disjunction	positive	5	S_brown	hit	J	10324	2	901613	1	10501	1	0	next
disjunction	positive	1	S_green	hit	J	6327	2	937449	1	6500	1	0	next
disjunction	negative	30	Null	hit	F	19132	2	969284	1	19168	1	0	next
disjunction	positive	15	S_green	hit	J	9348	2	1013787	1	9501	1	0	next
disjunction	negative	15	Null	hit	F	19959	2	1048622	1	20001	1	0	next
disjunction	positive	30	S_green	hit	J	12544	2	1093959	1	12667	1	0	next
disjunction	negative	15	Null	hit	F	18699	2	1131961	1	18834	1	0	next
disjunction	negative	5	Null	hit	F	11169	2	1176131	1	11334	1	0	next
disjunction	positive	15	T_blue	hit	J	6181	2	1212800	1	6334	1	0	next
disjunction	positive	15	T_blue	hit	J	4915	2	1244468	1	5000	1	0	next
disjunction	negative	1	Null	hit	F	12019	2	1274804	1	12167	1	0	next
disjunction	positive	15	S_brown	hit	J	6997	2	1312306	1	7167	1	0	next
disjunction	positive	15	S_brown	hit	J	6340	2	1344808	1	6500	1	0	next
disjunction	negative	5	Null	hit	F	9224	2	1376644	1	9334	1	0	next
disjunction	positive	15	T_blue	hit	J	5754	2	1411312	1	5834	1	0	next
disjunction	negative	15	Null	hit	F	19865	2	1442481	1	20001	1	0	next
disjunction	negative	5	Null	hit	F	11011	2	1487817	1	11167	1	0	next
disjunction	positive	1	T_blue	hit	J	6189	2	1524320	1	6334	1	0	next
disjunction	negative	5	Null	hit	F	10682	2	1555988	1	10834	1	0	next
disjunction	negative	30	Null	hit	F	11317	2	1592157	1	11501	1	0	next
disjunction	negative	30	Null	hit	F	14002	2	1628993	1	14168	1	0	next
disjunction	positive	30	S_brown	hit	J	7937	2	1668496	1	8000	1	0	next
disjunction	positive	15	S_brown	hit	J	7086	2	1701831	1	7167	1	0	next
disjunction	negative	5	Null	hit	F	8022	2	1734333	1	8167	1	0	next
disjunction	negative	30	Null	hit	F	10042	2	1767835	1	10167	1	0	next
disjunction	positive	5	T_blue	hit	J	5582	2	1803338	1	5667	1	0	next
disjunction	positive	15	X_blue	hit	J	6577	2	1834340	1	6667	1	0	next
disjunction	negative	1	Null	hit	F	11857	2	1866342	1	12001	1	0	next
disjunction	negative	30	Null	hit	F	13882	2	1903677	1	14001	1	0	next
disjunction	positive	1	X_blue	hit	J	5587	2	1943013	1	5667	1	0	next
disjunction	positive	1	S_green	hit	J	7867	2	1974015	1	8000	1	0	next
disjunction	positive	1	S_brown	hit	J	5734	2	2007351	1	5834	1	0	next
disjunction	negative	5	Null	hit	F	6884	2	2038519	1	7000	1	0	next
disjunction	positive	15	T_blue	hit	J	5588	2	2070855	1	5667	1	0	next
disjunction	positive	30	X_blue	hit	J	4990	2	2101857	1	5167	1	0	next
disjunction	negative	30	Null	hit	F	8567	2	2132359	1	8667	1	0	next
disjunction	negative	1	Null	hit	F	8644	2	2166361	1	8834	1	0	next
disjunction	positive	1	S_brown	hit	J	10800	2	2200530	1	10834	1	0	next
disjunction	negative	1	Null	hit	F	8230	2	2236699	1	8334	1	0	next
disjunction	negative	5	Null	hit	F	10243	2	2270368	1	10334	1	0	next
disjunction	negative	15	Null	hit	F	9457	2	2306037	1	9501	1	0	next
disjunction	negative	1	Null	hit	F	7258	2	2340872	1	7334	1	0	next
disjunction	positive	30	S_green	hit	J	9473	2	2373541	1	9667	1	0	next
disjunction	positive	1	T_blue	hit	J	6468	2	2408543	1	6500	1	0	next
disjunction	negative	30	Null	hit	F	9355	2	2440379	1	9501	1	0	next
disjunction	positive	15	S_brown	hit	J	7000	2	2475214	1	7167	1	0	next
disjunction	positive	30	X_blue	hit	J	11299	2	2507716	1	11334	1	0	next
disjunction	positive	15	S_brown	hit	J	9351	2	2544385	1	9501	1	0	next
disjunction	negative	1	Null	hit	F	11959	2	2579221	1	12001	1	0	next
disjunction	negative	5	Null	hit	F	8383	2	2616557	1	8501	1	0	next
disjunction	positive	15	X_blue	hit	J	5749	2	2650392	1	5834	1	0	next
disjunction	positive	5	X_blue	hit	J	4661	2	2681561	1	4834	1	0	next
disjunction	negative	5	Null	hit	F	6813	2	2711729	1	7001	1	0	next
disjunction	positive	30	S_green	hit	J	6477	2	2744065	1	6667	1	0	next
disjunction	positive	5	S_brown	hit	J	5034	2	2776067	1	5167	1	0	next
disjunction	positive	15	S_brown	hit	J	4937	2	2806569	1	5000	1	0	next
disjunction	positive	30	S_green	incorrect	F	9483	2	2836904	1	9667	1	0	next
disjunction	negative	15	Null	hit	F	10481	2	2871906	1	10667	1	0	next
disjunction	positive	5	T_blue	hit	J	5359	2	2907909	1	5500	1	0	next
disjunction	negative	30	Null	hit	F	17404	2	2938744	1	17501	1	0	next
disjunction	positive	15	X_blue	hit	J	5131	2	2981580	1	5167	1	0	next
disjunction	positive	15	T_blue	hit	J	5509	2	3012082	1	5667	1	0	next
disjunction	negative	5	Null	hit	F	7626	2	3043084	1	7667	1	0	next
disjunction	negative	15	Null	hit	F	10946	2	3076086	1	11001	1	0	next
disjunction	negative	30	Null	hit	F	15572	2	3112422	1	15668	1	0	next
disjunction	negative	15	Null	hit	F	9288	2	3153424	1	9334	1	0	next
disjunction	negative	15	Null	hit	F	9342	2	3188093	1	9501	1	0	next
disjunction	negative	15	Null	hit	F	14185	2	3222929	1	14334	1	0	next
disjunction	negative	1	Null	hit	F	8276	2	3262598	1	8334	1	0	next
disjunction	positive	5	X_blue	hit	J	5650	2	3296267	1	5834	1	0	next
disjunction	positive	1	S_brown	hit	J	7280	2	3327435	1	7334	1	0	next
disjunction	negative	1	Null	hit	F	9012	2	3360104	1	9167	1	0	next
disjunction	negative	1	Null	hit	F	8114	2	3394606	1	8167	1	0	next
disjunction	negative	30	Null	hit	F	17488	2	3428109	1	17668	1	0	next
disjunction	positive	30	T_blue	hit	J	6010	2	3471111	1	6167	1	0	next
disjunction	positive	1	S_brown	hit	J	8587	2	3502613	1	8667	1	0	next
disjunction	positive	30	T_blue	hit	J	5947	2	3536616	1	6000	1	0	next
disjunction	positive	30	S_green	hit	J	12531	2	3567951	1	12667	1	0	next
disjunction	positive	1	S_green	hit	J	4929	2	3605953	1	5000	1	0	next
disjunction	positive	1	S_green	hit	J	5475	2	3636289	1	5667	1	0	next
disjunction	negative	1	Null	hit	F	8076	2	3667291	1	8167	1	0	next
disjunction	positive	1	S_brown	hit	J	6255	2	3700793	1	6334	1	0	next
disjunction	negative	5	Null	hit	F	7229	2	3732461	1	7334	1	0	next
disjunction	negative	5	Null	hit	F	5916	2	3765130	1	6000	1	0	next
disjunction	positive	1	X_blue	hit	J	6904	2	3796466	1	7000	1	0	next
disjunction	negative	15	Null	hit	F	19050	2	3828801	1	19168	1	0	next
disjunction	positive	30	S_brown	hit	J	8788	2	3873304	1	8834	1	0	next
disjunction	positive	1	S_green	hit	J	4697	2	3907473	1	4834	1	0	next
disjunction	positive	5	S_green	hit	J	7491	2	3937641	1	7667	1	0	next
disjunction	negative	5	Null	hit	F	7127	2	3970643	1	7167	1	0	next
disjunction	negative	1	Null	hit	F	9348	2	4003145	1	9501	1	0	next
disjunction	negative	15	Null	hit	F	7635	2	4037981	1	7834	1	0	next
disjunction	positive	30	X_blue	hit	J	5988	2	4071150	1	6167	1	0	next
disjunction	negative	5	Null	hit	F	6327	2	4102652	1	6500	1	0	next
disjunction	negative	15	Null	hit	F	6810	2	4134487	1	7001	1	0	next
disjunction	positive	5	S_green	hit	J	7437	2	4166823	1	7500	1	0	next
disjunction	positive	30	S_brown	hit	J	5640	2	4199658	1	5834	1	0	next
disjunction	negative	1	Null	hit	F	6634	2	4230827	1	6834	1	0	next
disjunction	negative	30	Null	incorrect	J	19268	2	4262995	1	19335	1	0	next
disjunction	negative	30	Null	hit	F	16676	2	4307665	1	16834	1	0	next
disjunction	negative	15	Null	hit	F	17871	2	4349834	1	18001	1	0	next
disjunction	positive	5	X_blue	hit	J	5896	2	4393171	1	6000	1	0	next
disjunction	positive	5	X_blue	hit	J	5276	2	4424506	1	5334	1	0	next
disjunction	positive	30	X_blue	hit	J	5010	2	4455175	1	5167	1	0	next
disjunction	positive	5	X_blue	hit	J	6671	2	4485677	1	6834	1	0	next
disjunction	negative	30	Null	hit	F	13223	2	4517845	1	13334	1	0	next
disjunction	negative	30	Null	hit	F	23032	2	4556514	1	23168	1	0	next
disjunction	negative	30	Null	hit	F	11815	2	4605017	1	12001	1	0	next
conjunction	positive	5	T_green	incorrect	F	8343	2	4703690	1	8501	1	0	next
conjunction	positive	1	T_green	hit	J	7628	2	4737526	1	7667	1	0	next
conjunction	positive	30	T_green	incorrect	F	19747	2	4770528	1	19835	1	0	next
conjunction	positive	30	T_green	hit	J	13618	2	4815698	1	13668	1	0	next
conjunction	positive	5	T_green	hit	J	5817	2	4854700	1	6000	1	0	next
conjunction	positive	30	T_green	incorrect	F	16403	2	4886036	1	16501	1	0	next
conjunction	positive	15	T_green	hit	J	10087	2	4927872	1	10167	1	0	next
conjunction	negative	15	Null	hit	F	16022	2	4963374	1	16168	1	0	next
conjunction	negative	30	Null	hit	F	35325	2	5004876	1	35502	1	0	next
conjunction	negative	5	Null	incorrect	J	8728	2	5065714	1	8834	1	0	next
conjunction	positive	5	T_green	incorrect	F	12482	2	5099883	1	12668	1	0	next
conjunction	positive	15	T_green	incorrect	F	24880	2	5137885	1	25002	1	0	next
conjunction	negative	15	Null	hit	F	44947	2	5188222	1	45003	1	0	next
conjunction	negative	1	Null	hit	F	14768	2	5258559	1	14834	1	0	next
conjunction	negative	5	Null	hit	F	9317	2	5298729	1	9501	1	0	next
conjunction	positive	1	T_green	hit	J	7121	2	5333564	1	7167	1	0	next
conjunction	negative	5	Null	hit	F	14304	2	5366066	1	14334	1	0	next
conjunction	positive	15	T_green	incorrect	F	13192	2	5405736	1	13334	1	0	next
conjunction	negative	1	Null	hit	F	8126	2	5444405	1	8167	1	0	next
conjunction	positive	5	T_green	hit	J	8863	2	5477907	1	9001	1	0	next
conjunction	negative	30	Null	hit	F	29249	2	5512242	1	29335	1	0	next
conjunction	negative	5	Null	hit	F	7539	2	5566913	1	7667	1	0	next
conjunction	positive	1	T_green	hit	J	5742	2	5599915	1	5834	1	0	next
conjunction	negative	5	Null	hit	F	10573	2	5631083	1	10667	1	0	next
conjunction	positive	30	T_green	hit	J	13131	2	5667086	1	13334	1	0	next
conjunction	positive	1	T_green	hit	J	6460	2	5705755	1	6500	1	0	next
conjunction	positive	5	T_green	hit	J	7749	2	5737590	1	7834	1	0	next
conjunction	negative	5	Null	hit	F	8341	2	5770759	1	8501	1	0	next
conjunction	positive	15	T_green	hit	J	10827	2	5804594	1	11001	1	0	next
conjunction	positive	1	T_green	hit	J	5369	2	5840930	1	5500	1	0	next
conjunction	positive	30	T_green	hit	J	12458	2	5871765	1	12501	1	0	next
conjunction	positive	15	T_green	hit	J	6459	2	5909601	1	6500	1	0	next
conjunction	positive	30	T_green	hit	J	13025	2	5941437	1	13168	1	0	next
conjunction	positive	30	T_green	hit	J	11323	2	5979939	1	11501	1	0	next
conjunction	positive	5	T_green	hit	J	5048	2	6016775	1	5167	1	0	next
conjunction	negative	30	Null	hit	F	27829	2	6047277	1	28002	1	0	next
conjunction	negative	1	Null	hit	F	9854	2	6100613	1	10001	1	0	next
conjunction	positive	5	T_green	hit	J	5718	2	6135949	1	5834	1	0	next
conjunction	positive	1	T_green	hit	J	4951	2	6167118	1	5000	1	0	next
conjunction	negative	15	Null	hit	F	12855	2	6197453	1	13001	1	0	next
conjunction	negative	15	Null	hit	F	17403	2	6235789	1	17501	1	0	next
conjunction	negative	30	Null	hit	F	25287	2	6278625	1	25335	1	0	next
conjunction	negative	1	Null	hit	F	7738	2	6329295	1	7834	1	0	next
conjunction	negative	1	Null	hit	F	8492	2	6362464	1	8667	1	0	next
conjunction	negative	30	Null	hit	F	13848	2	6396466	1	14001	1	0	next
conjunction	positive	15	T_green	hit	J	11155	2	6435802	1	11334	1	0	next
conjunction	positive	1	T_green	hit	J	5205	2	6472471	1	5334	1	0	next
conjunction	positive	5	T_green	hit	J	5258	2	6503139	1	5334	1	0	next
conjunction	positive	1	T_green	hit	J	5470	2	6533808	1	5667	1	0	next
conjunction	negative	1	Null	hit	F	7750	2	6564810	1	7834	1	0	next
conjunction	positive	30	T_green	hit	J	7699	2	6597979	1	7834	1	0	next
conjunction	negative	5	Null	hit	F	7653	2	6631147	1	7834	1	0	next
conjunction	negative	30	Null	hit	F	19127	2	6664316	1	19168	1	0	next
conjunction	positive	30	T_green	hit	J	17987	2	6708819	1	18168	1	0	next
conjunction	negative	30	Null	hit	F	15761	2	6752322	1	15834	1	0	next
conjunction	positive	30	T_green	hit	J	8673	2	6793491	1	8834	1	0	next
conjunction	negative	30	Null	hit	F	22827	2	6827660	1	23002	1	0	next
conjunction	negative	5	Null	hit	F	7772	2	6875997	1	7834	1	0	next
conjunction	positive	15	T_green	incorrect	F	12522	2	6909165	1	12667	1	0	next
conjunction	negative	15	Null	hit	F	13563	2	6947168	1	13667	1	0	next
conjunction	negative	30	Null	hit	F	14401	2	6986170	1	14501	1	0	next
conjunction	positive	15	T_green	hit	J	5605	2	7026006	1	5667	1	0	next
conjunction	positive	30	T_green	hit	J	18924	2	7057008	1	19001	1	0	next
conjunction	positive	15	T_green	hit	J	6266	2	7101344	1	6332	2	0	next
conjunction	negative	5	Null	hit	F	7561	2	7133013	1	7667	1	0	next
conjunction	negative	5	Null	hit	F	12480	2	7166015	1	12668	1	0	next
conjunction	negative	5	Null	hit	F	7278	2	7204018	1	7334	1	0	next
conjunction	negative	5	Null	hit	F	6291	2	7236686	1	6334	1	0	next
conjunction	positive	1	T_green	hit	J	5979	2	7268355	1	6167	1	0	next
conjunction	positive	5	T_green	hit	J	7122	2	7299857	1	7167	1	0	next
conjunction	negative	30	Null	hit	F	26141	2	7332359	1	26335	1	0	next
conjunction	positive	1	T_green	hit	J	6312	2	7384029	1	6500	1	0	next
conjunction	positive	30	T_green	hit	J	16874	2	7415865	1	17001	1	0	next
conjunction	negative	1	Null	hit	F	8460	2	7458201	1	8501	1	0	next
conjunction	negative	5	Null	hit	F	9666	2	7492036	1	9834	1	0	next
conjunction	positive	1	T_green	hit	J	9377	2	7527205	1	9501	1	0	next
conjunction	negative	30	Null	hit	F	18863	2	7562041	1	19001	1	0	next
conjunction	negative	5	Null	hit	F	8770	2	7606377	1	8834	1	0	next
conjunction	negative	5	Null	hit	F	6603	2	7640546	1	6667	1	0	next
conjunction	negative	1	Null	hit	F	6761	2	7672548	1	6834	1	0	next
conjunction	negative	30	Null	hit	F	14590	2	7704716	1	14668	1	0	next
conjunction	negative	30	Null	hit	F	14589	2	7744719	1	14668	1	0	next
conjunction	negative	30	Null	hit	F	14590	2	7784722	1	14668	1	0	next
conjunction	negative	15	Null	hit	F	11068	2	7824724	1	11167	1	0	next
conjunction	negative	30	Null	hit	F	19046	2	7861226	1	19168	1	0	next
conjunction	negative	15	Null	hit	F	9584	2	7905729	1	9667	1	0	next
conjunction	negative	30	Null	hit	F	9624	2	7940732	1	9667	1	0	next
conjunction	negative	5	Null	hit	F	8699	2	7975734	1	8834	1	0	next
conjunction	negative	15	Null	hit	F	8772	2	8009903	1	8834	1	0	next
conjunction	positive	15	T_green	hit	J	6443	2	8044072	1	6500	1	0	next
conjunction	positive	15	T_green	hit	J	5495	2	8075907	1	5667	1	0	next
conjunction	negative	1	Null	hit	F	7128	2	8106909	1	7167	1	0	next
conjunction	positive	30	T_green	hit	J	6948	2	8139411	1	7000	1	0	next
conjunction	negative	15	Null	hit	F	9654	2	8171746	1	9834	1	0	next
conjunction	negative	15	Null	hit	F	10167	2	8206915	1	10334	1	0	next
conjunction	positive	1	T_green	hit	J	5536	2	8242584	1	5667	1	0	next
conjunction	positive	30	T_green	incorrect	F	15014	2	8273586	1	15168	1	0	next
conjunction	negative	15	Null	hit	F	8915	2	8314089	1	9001	1	0	next
conjunction	negative	15	Null	hit	F	10419	2	8348424	1	10501	1	0	next
conjunction	negative	1	Null	hit	F	6905	2	8384260	1	7000	1	0	next
conjunction	positive	15	T_green	hit	J	5451	2	8416595	1	5500	1	0	next
conjunction	negative	1	Null	hit	F	5336	2	8447431	1	5500	1	0	next
conjunction	negative	1	Null	hit	F	6503	2	8478266	1	6667	1	0	next
conjunction	negative	1	Null	hit	F	5539	2	8510268	1	5667	1	0	next
conjunction	positive	15	T_green	hit	J	5259	2	8541270	1	5334	1	0	next
conjunction	positive	1	T_green	hit	J	5793	2	8571939	1	5834	1	0	next
conjunction	positive	15	T_green	hit	J	10463	2	8603107	1	10501	1	0	next
conjunction	negative	15	Null	hit	F	6629	2	8638943	1	6667	1	0	next
conjunction	negative	1	Null	hit	F	5989	2	8670945	1	6167	1	0	next
conjunction	positive	1	T_green	hit	J	6804	2	8702447	1	6834	1	0	next
conjunction	negative	1	Null	hit	F	6319	2	8734616	1	6500	1	0	next
conjunction	negative	15	Null	hit	F	14165	2	8766451	1	14334	1	0	next
conjunction	negative	15	Null	hit	F	11935	2	8806120	1	12001	1	0	next
conjunction	negative	1	Null	hit	F	7242	2	8843456	1	7334	1	0	next
conjunction	positive	1	T_green	hit	J	6093	2	8876125	1	6167	1	0	next
conjunction	negative	15	Null	hit	F	12029	2	8907627	1	12167	1	0	next
conjunction	positive	15	T_green	incorrect	F	9410	2	8945129	1	9501	1	0	next
conjunction	positive	5	T_green	incorrect	F	8014	2	8979965	1	8167	1	0	next
conjunction	positive	15	T_green	hit	J	10993	2	9013467	1	11167	1	0	next
conjunction	positive	5	T_green	hit	J	10170	2	9049969	1	10334	1	0	next
conjunction	positive	1	T_green	hit	J	5066	2	9085638	1	5167	1	0	next
conjunction	positive	30	T_green	incorrect	F	10882	2	9116140	1	11001	1	0	next
conjunction	positive	30	T_green	incorrect	F	21588	2	9152476	1	21668	1	0	next
conjunction	positive	5	T_green	hit	J	5628	2	9199479	1	5667	1	0	next
conjunction	positive	5	T_green	hit	J	5666	2	9230481	1	5834	1	0	next
conjunction	positive	5	T_green	hit	J	5217	2	9261650	1	5334	1	0	next
conjunction	positive	5	T_green	hit	J	4787	2	9292318	1	4834	1	0	next
conjunction	positive	5	T_green	hit	J	6780	2	9322487	1	6834	1	0	next
conjunction	negative	15	Null	hit	F	20239	2	9397992	1	20335	1	0	next
conjunction	positive	15	T_green	hit	J	10892	2	9443661	1	11001	1	0	next
conjunction	negative	5	Null	hit	F	11193	2	9479997	1	11334	1	0	next
conjunction	positive	5	T_green	hit	J	15805	2	9516666	1	16001	1	0	next
conjunction	positive	30	T_green	hit	J	8394	2	9558002	1	8501	1	0	next
conjunction	negative	5	Null	hit	F	8158	2	9591838	1	8334	1	0	next
conjunction	positive	1	T_green	hit	J	6009	2	9625506	1	6167	1	0	next
conjunction	negative	30	Null	hit	F	14831	2	9657008	1	15001	1	0	next
conjunction	negative	5	Null	hit	F	7293	2	9697344	1	7334	1	0	next
conjunction	negative	1	Null	hit	F	6950	2	9730013	1	7000	1	0	next
conjunction	positive	30	T_green	hit	J	15731	2	9762348	1	15834	1	0	next
conjunction	positive	1	T_green	hit	J	5924	2	9803518	1	6000	1	0	next
conjunction	negative	30	Null	hit	F	11229	2	9834853	1	11334	1	0	next
conjunction	negative	15	Null	hit	F	11041	2	9871522	1	11167	1	0	next
conjunction	positive	15	T_green	incorrect	F	7818	2	9908024	1	8001	1	0	next
conjunction	negative	15	Null	hit	F	17523	2	9941360	1	17668	1	0	next
conjunction	positive	30	T_green	hit	J	5085	2	9984363	1	5167	1	0	next
conjunction	negative	30	Null	hit	F	12506	2	10014865	1	12667	1	0	next
conjunction	negative	1	Null	hit	F	8102	2	10052867	1	8167	1	0	next
conjunction	positive	5	T_green	hit	J	5158	2	10086369	1	5334	1	0	next
conjunction	positive	1	T_green	hit	J	4250	2	10117038	1	4334	1	0	next
conjunction	negative	5	Null	hit	F	7225	2	10146706	1	7334	1	0	next
conjunction	negative	30	Null	hit	F	6717	2	10179375	1	6834	1	0	next
conjunction	negative	1	Null	hit	F	7026	2	10211544	1	7167	1	0	next
conjunction	negative	30	Null	hit	F	6846	2	10244046	1	7001	1	0	next
conjunction	positive	1	T_green	hit	J	5552	2	10276381	1	5667	1	0	next
conjunction	positive	15	T_green	incorrect	F	7509	2	10307383	1	7667	1	0	next
conjunction	positive	5	T_green	hit	J	6027	2	10340386	1	6167	1	0	next
conjunction	positive	30	T_green	incorrect	F	8128	2	10371888	1	8167	1	0	next
conjunction	positive	1	T_green	hit	J	5826	2	10405390	1	6000	1	0	next
conjunction	negative	30	Null	hit	F	19293	2	10436725	1	19335	1	0	next
conjunction	negative	30	Null	hit	F	19905	2	10481395	1	20001	1	0	next
conjunction	positive	1	T_green	hit	J	4970	2	10526731	1	5167	1	0	next
conjunction	negative	15	Null	hit	F	10148	2	10557233	1	10334	1	0	next
conjunction	negative	5	Null	hit	F	6800	2	10592902	1	6834	1	0	next
conjunction	positive	30	T_green	incorrect	F	9510	2	10625071	1	9667	1	0	next
conjunction	negative	1	Null	incorrect	J	5230	2	10660073	1	5334	1	0	next
conjunction	negative	5	Null	hit	F	7682	2	10690741	1	7834	1	0	next
conjunction	positive	5	T_green	hit	J	6193	2	10723910	1	6334	1	0	next
conjunction	negative	1	Null	hit	F	6846	2	10755579	1	7000	1	0	next
conjunction	positive	1	T_green	hit	J	6675	2	10787914	1	6834	1	0	next
conjunction	positive	1	T_green	hit	J	5062	2	10820083	1	5167	1	0	next
conjunction	positive	30	T_green	hit	J	11362	2	10850585	1	11501	1	0	next
conjunction	negative	30	Null	hit	F	19650	2	10887421	1	19835	1	0	next
conjunction	negative	1	Null	hit	F	10002	2	10932590	1	10167	1	0	next
conjunction	positive	30	T_green	hit	J	11300	2	10968093	1	11501	1	0	next
conjunction	positive	1	T_green	hit	J	5506	2	11004928	1	5667	1	0	next
conjunction	positive	5	T_green	hit	J	6982	2	11035930	1	7167	1	0	next
conjunction	negative	5	Null	hit	F	7122	2	11068432	1	7167	1	0	next
conjunction	positive	1	T_green	hit	J	10299	2	11100934	1	10334	1	0	next
conjunction	positive	15	T_green	hit	J	9510	2	11136603	1	9667	1	0	next
conjunction	positive	15	T_green	incorrect	F	16750	2	11171606	1	16835	1	0	next
conjunction	positive	15	T_green	hit	J	8020	2	11213775	1	8167	1	0	next
conjunction	positive	30	T_green	hit	J	7641	2	11247277	1	7834	1	0	next
conjunction	negative	1	Null	hit	F	10316	2	11280446	1	10501	1	0	next
conjunction	negative	1	Null	hit	F	10801	2	11316282	1	10834	1	0	next
conjunction	negative	1	Null	incorrect	J	9029	2	11352451	1	9167	1	0	next
conjunction	positive	15	T_green	hit	J	11167	2	11386953	1	11334	1	0	next
conjunction	positive	30	T_green	hit	J	9224	2	11423622	1	9334	1	0	next
conjunction	positive	15	T_green	hit	J	12634	2	11458291	1	12667	1	0	next
conjunction	positive	5	T_green	hit	J	5993	2	11496293	1	6167	1	0	next
conjunction	positive	15	T_green	hit	J	7292	2	11527795	1	7334	1	0	next
conjunction	positive	30	T_green	hit	J	14303	2	11560464	1	14501	1	0	next
conjunction	positive	30	T_green	hit	J	18789	2	11600300	1	18834	1	0	next
conjunction	negative	1	Null	hit	F	6301	2	11644469	1	6334	1	0	next
conjunction	positive	5	T_green	hit	J	5510	2	11676138	1	5667	1	0	next
conjunction	negative	30	Null	hit	F	22188	2	11707140	1	22335	1	0	next
conjunction	positive	5	T_green	hit	J	5884	2	11754810	1	6000	1	0	next
conjunction	negative	15	Null	hit	F	15026	2	11786145	1	15168	1	0	next
conjunction	positive	5	T_green	hit	J	6524	2	11826648	1	6667	1	0	next
conjunction	negative	15	Null	hit	F	20442	2	11858650	1	20501	1	0	next
conjunction	negative	15	Null	incorrect	J	6771	2	11904486	1	6834	1	0	next
conjunction	positive	5	T_green	hit	J	5478	2	11936655	1	5667	1	0	next
conjunction	negative	1	Null	incorrect	J	5197	2	11967657	1	5334	1	0	next
conjunction	positive	5	T_green	hit	J	6372	2	11998325	1	6500	1	0	next
conjunction	negative	15	Null	hit	F	12299	2	12030161	1	12334	1	0	next
conjunction	positive	5	T_green	hit	J	6633	2	12067830	1	6667	1	0	next
conjunction	positive	5	T_green	hit	J	5026	2	12099832	1	5167	1	0	next
conjunction	positive	5	T_green	hit	J	4926	2	12130334	1	5000	1	0	next
conjunction	negative	5	Null	incorrect	J	9153	2	12160669	1	9334	1	0	next
conjunction	positive	30	T_green	hit	J	15924	2	12195338	1	16001	1	0	next
conjunction	positive	15	T_green	incorrect	F	11552	2	12236674	1	11667	1	0	next
conjunction	negative	15	Null	hit	F	15669	2	12273676	1	15834	1	0	next
conjunction	positive	1	T_green	hit	J	11780	2	12314846	1	11834	1	0	next
conjunction	negative	5	Null	hit	F	7891	2	12352015	1	8001	1	0	next
conjunction	positive	15	T_green	hit	J	13277	2	12385350	1	13334	1	0	next
conjunction	negative	5	Null	hit	F	7090	2	12424019	1	7167	1	0	next
conjunction	negative	1	Null	hit	F	5625	2	12456521	1	5667	1	0	next
conjunction	negative	15	Null	hit	F	11908	2	12487523	1	12001	1	0	next
conjunction	negative	5	Null	hit	F	10412	2	12524859	1	10501	1	0	next
conjunction	negative	1	Null	hit	F	11214	2	12560695	1	11334	1	0	next
conjunction	negative	5	Null	hit	F	12150	2	12597364	1	12334	1	0	next
conjunction	negative	30	Null	hit	F	26160	2	12635033	1	26335	1	0	next
conjunction	negative	15	Null	hit	F	8251	2	12686703	1	8334	1	0	next
conjunction	negative	15	Null	hit	F	9467	2	12720372	1	9501	1	0	next
conjunction	positive	5	T_green	hit	J	7591	2	12755207	1	7667	1	0	next
conjunction	negative	1	Null	hit	F	14427	2	12788209	1	14501	1	0	next
conjunction	positive	5	T_green	hit	J	6274	2	12828045	1	6334	1	0	next
conjunction	negative	15	Null	incorrect	J	11246	2	12859714	1	11334	1	0	next
conjunction	negative	5	Null	hit	F	10097	2	12896383	1	10167	1	0	next
conjunction	negative	30	Null	hit	F	15396	2	12931885	1	15501	1	0	next
conjunction	negative	1	Null	hit	F	7359	2	12972721	1	7501	1	0	next
conjunction	positive	15	T_green	hit	J	6046	2	13005557	1	6167	1	0	next
conjunction	positive	30	T_green	hit	J	13587	2	13037059	1	13668	1	0	next
conjunction	positive	1	T_green	hit	J	5461	2	13076061	1	5500	1	0	next
conjunction	negative	5	Null	hit	F	7270	2	13106897	1	7334	1	0	next
conjunction	negative	15	Null	hit	F	12359	2	13139565	1	12501	1	0	next
conjunction	negative	1	Null	hit	F	6684	2	13177401	1	6834	1	0	next
conjunction	negative	5	Null	hit	F	7316	2	13209570	1	7500	1	0	next
conjunction	negative	5	Null	hit	F	6486	2	13242405	1	6667	1	0	next
conjunction	negative	15	Null	hit	F	10321	2	13274407	1	10501	1	0	next
conjunction	negative	15	Null	hit	F	7609	2	13310243	1	7667	1	0	next
conjunction	positive	15	T_green	hit	J	8843	2	13343245	1	9001	1	0	next
conjunction	positive	1	T_green	hit	J	6031	2	13377581	1	6167	1	0	next
conjunction	negative	30	Null	hit	F	22530	2	13409083	1	22668	1	0	next
conjunction	positive	1	T_green	hit	J	5570	2	13457086	1	5667	1	0	next
conjunction	negative	30	Null	hit	F	13609	2	13488088	1	13668	1	0	next
conjunction	negative	30	Null	hit	F	11245	2	13527090	1	11334	1	0	next
conjunction	positive	1	T_green	hit	J	6579	2	13563759	1	6667	1	0	next
conjunction	negative	30	Null	hit	F	9458	2	13595761	1	9501	1	0	next
conjunction	negative	30	Null	hit	F	6779	2	13630597	1	6834	1	0	next
conjunction	positive	30	T_green	incorrect	F	6934	2	13662765	1	7000	1	0	next
conjunction	positive	30	T_green	hit	J	8040	2	13695101	1	8167	1	0	next
conjunction	positive	30	T_green	incorrect	F	16780	2	13728603	1	16834	1	0	next
conjunction	positive	15	T_green	hit	J	9012	2	13770772	1	9167	1	0	next
conjunction	positive	1	T_green	hit	J	4588	2	13805275	1	4667	1	0	next
conjunction	positive	15	T_green	hit	J	8988	2	13835277	1	9167	1	0	next
conjunction	positive	15	T_green	hit	J	4725	2	13869779	1	4834	1	0	next
disjunction	negative	30	Null	hit	F	44322	2	13935783	1	44503	1	0	next
disjunction	positive	30	T_blue	hit	J	6646	2	14005621	1	6834	1	0	next
disjunction	negative	30	Null	hit	F	25359	2	14037790	1	25502	1	0	next
disjunction	positive	1	X_blue	hit	J	7165	2	14088626	1	7334	1	0	next
disjunction	negative	30	Null	hit	F	25855	2	14121295	1	26002	1	0	next
disjunction	negative	1	Null	hit	F	7803	2	14172632	1	8001	1	0	next
disjunction	positive	5	S_green	hit	J	7747	2	14205967	1	7834	1	0	next
disjunction	positive	1	X_blue	hit	J	4178	2	14239136	1	4334	1	0	next
disjunction	negative	30	Null	hit	F	25234	2	14268804	1	25335	1	0	next
disjunction	negative	15	Null	hit	F	15680	2	14319474	1	15834	1	0	next
disjunction	positive	15	S_brown	hit	J	10031	2	14360644	1	10167	1	0	next
disjunction	negative	30	Null	hit	F	15974	2	14396146	1	16168	1	0	next
disjunction	positive	30	S_green	hit	J	8551	2	14437649	1	8667	1	0	next
disjunction	negative	15	Null	hit	F	16470	2	14471651	1	16668	1	0	next
disjunction	positive	15	T_blue	hit	J	5505	2	14513653	1	5667	1	0	next
disjunction	negative	1	Null	hit	F	6509	2	14544655	1	6667	1	0	next
disjunction	negative	30	Null	hit	F	20744	2	14576657	1	20835	1	0	next
disjunction	positive	1	T_blue	hit	J	5295	2	14622827	1	5334	1	0	next
disjunction	positive	1	S_brown	hit	J	5831	2	14653496	1	6000	1	0	next
disjunction	positive	1	S_green	hit	J	5692	2	14684831	1	5834	1	0	next
disjunction	positive	1	X_blue	hit	J	5408	2	14716000	1	5500	1	0	next
disjunction	positive	5	S_brown	hit	J	5130	2	14746835	1	5167	1	0	next
disjunction	negative	1	Null	hit	F	10631	2	14777337	1	10667	1	0	next
disjunction	negative	15	Null	hit	F	15750	2	14813339	1	15834	1	0	next
disjunction	positive	5	S_brown	hit	J	6582	2	14854509	1	6667	1	0	next
disjunction	negative	5	Null	hit	F	7698	2	14886511	1	7834	1	0	next
disjunction	positive	30	S_green	hit	J	14052	2	14919680	1	14168	1	0	next
disjunction	negative	15	Null	hit	F	10871	2	14959182	1	11001	1	0	next
disjunction	positive	5	S_green	hit	J	13415	2	14995518	1	13501	1	0	next
disjunction	negative	15	Null	hit	F	18262	2	15034354	1	18335	1	0	next
disjunction	positive	15	S_green	hit	J	9629	2	15078023	1	9667	1	0	next
disjunction	positive	5	S_green	hit	J	5834	2	15113025	1	6000	1	0	next
disjunction	negative	15	Null	hit	F	10659	2	15144361	1	10834	1	0	next
disjunction	positive	1	S_green	hit	J	6649	2	15180530	1	6834	1	0	next
disjunction	negative	30	Null	hit	F	23442	2	15212698	1	23502	1	0	next
disjunction	negative	5	Null	hit	F	14924	2	15261535	1	15001	1	0	next
disjunction	positive	1	X_blue	hit	J	6110	2	15301871	1	6167	1	0	next
disjunction	positive	5	S_green	hit	J	5490	2	15333373	1	5667	1	0	next
disjunction	negative	30	Null	hit	F	13845	2	15364375	1	14001	1	0	next
disjunction	positive	15	S_brown	hit	J	10191	2	15403711	1	10334	1	0	next
disjunction	positive	30	T_blue	hit	J	5406	2	15439380	1	5500	1	0	next
disjunction	negative	5	Null	hit	F	7849	2	15470215	1	8001	1	0	next
disjunction	negative	15	Null	hit	F	10676	2	15503550	1	10834	1	0	next
disjunction	negative	30	Null	hit	F	18027	2	15539719	1	18168	1	0	next
disjunction	negative	1	Null	hit	F	7968	2	15583222	1	8167	1	0	next
disjunction	positive	1	S_green	hit	J	6146	2	15616724	1	6334	1	0	next
disjunction	positive	30	X_blue	hit	J	5034	2	15648393	1	5167	1	0	next
disjunction	negative	30	Null	hit	F	12939	2	15678895	1	13001	1	0	next
disjunction	negative	5	Null	hit	F	9482	2	15717231	1	9667	1	0	next
disjunction	negative	30	Null	hit	F	15917	2	15752233	1	16001	1	0	next
disjunction	positive	30	T_blue	hit	J	5623	2	15793569	1	5667	1	0	next
disjunction	negative	15	Null	hit	F	10302	2	15824571	1	10334	1	0	next
disjunction	negative	5	Null	hit	F	6156	2	15860240	1	6334	1	0	next
disjunction	negative	15	Null	hit	F	5365	2	15891909	1	5500	1	0	next
disjunction	positive	15	S_green	hit	J	7012	2	15922744	1	7167	1	0	next
disjunction	positive	30	T_blue	hit	J	5072	2	15955246	1	5167	1	0	next
disjunction	positive	30	S_green	hit	J	7368	2	15985748	1	7500	1	0	next
disjunction	negative	5	Null	hit	F	7173	2	16018583	1	7334	1	0	next
disjunction	negative	30	Null	hit	F	20267	2	16051252	1	20335	1	0	next
disjunction	negative	5	Null	hit	F	5799	2	16096922	1	5834	1	0	next
disjunction	positive	1	T_blue	hit	J	5511	2	16128090	1	5667	1	0	next
disjunction	negative	30	Null	hit	F	7792	2	16159092	1	7834	1	0	next
disjunction	positive	5	X_blue	hit	J	5341	2	16192261	1	5500	1	0	next
disjunction	negative	30	Null	hit	F	8110	2	16223096	1	8167	1	0	next
disjunction	negative	5	Null	hit	F	6604	2	16256599	1	6667	1	0	next
disjunction	positive	15	X_blue	hit	J	6124	2	16288601	1	6167	1	0	next
disjunction	positive	5	S_green	hit	J	7104	2	16320103	1	7167	1	0	next
disjunction	negative	1	Null	hit	F	7725	2	16352605	1	7834	1	0	next
disjunction	negative	30	Null	hit	F	19354	2	16385774	1	19501	1	0	next
disjunction	positive	15	X_blue	hit	J	5399	2	16430610	1	5500	1	0	next
disjunction	positive	1	S_brown	hit	J	5126	2	16461445	1	5167	1	0	next
disjunction	positive	1	X_blue	hit	J	4384	2	16491947	1	4500	1	0	next
disjunction	positive	5	S_brown	hit	J	4307	2	16521782	1	4500	1	0	next
disjunction	negative	5	Null	hit	F	5514	2	16551618	1	5667	1	0	next
disjunction	positive	15	S_green	hit	J	5874	2	16582620	1	6000	1	0	next
disjunction	positive	15	S_green	hit	J	6059	2	16613955	1	6167	1	0	next
disjunction	negative	1	Null	hit	F	4959	2	16645457	1	5000	1	0	next
disjunction	positive	5	S_green	hit	J	5985	2	16675792	1	6167	1	0	next
disjunction	positive	1	X_blue	hit	J	4882	2	16707294	1	5000	1	0	next
disjunction	negative	5	Null	hit	F	6866	2	16737630	1	7000	1	0	next
disjunction	negative	15	Null	hit	F	7653	2	16769965	1	7834	1	0	next
disjunction	negative	1	Null	incorrect	J	6802	2	16803134	1	6834	1	0	next
disjunction	positive	5	S_brown	hit	J	7595	2	16835302	1	7667	1	0	next
disjunction	negative	30	Null	hit	F	12836	2	16868305	1	13001	1	0	next
disjunction	negative	5	Null	hit	F	9701	2	16906640	1	9834	1	0	next
disjunction	positive	15	S_brown	hit	J	7655	2	16941809	1	7834	1	0	next
disjunction	positive	30	T_blue	hit	J	7445	2	16974978	1	7500	1	0	next
disjunction	positive	15	X_blue	hit	J	14132	2	17007814	1	14168	1	0	next
disjunction	negative	1	Null	hit	F	6630	2	17047316	1	6667	1	0	next
disjunction	positive	1	X_blue	hit	J	6150	2	17079318	1	6334	1	0	next
disjunction	positive	5	T_blue	hit	J	5679	2	17110987	1	5834	1	0	next
disjunction	positive	15	S_brown	hit	J	5554	2	17142155	1	5667	1	0	next
disjunction	negative	5	Null	hit	F	7030	2	17173158	1	7167	1	0	next
disjunction	positive	1	X_blue	hit	J	5088	2	17205660	1	5167	1	0	next
disjunction	positive	5	X_blue	hit	J	4348	2	17236162	1	4500	1	0	next
disjunction	positive	1	X_blue	hit	J	4914	2	17265997	1	5000	1	0	next
disjunction	positive	30	S_brown	incorrect	F	5938	2	17296332	1	6000	1	0	next
disjunction	negative	15	Null	hit	F	8684	2	17327667	1	8834	1	0	next
disjunction	negative	5	Null	hit	F	16278	2	17361836	1	16334	1	0	next
disjunction	negative	1	Null	hit	F	6769	2	17403506	1	6834	1	0	next
disjunction	negative	15	Null	hit	F	7244	2	17435674	1	7334	1	0	next
disjunction	negative	1	Null	hit	F	5773	2	17468343	1	5834	1	0	next
disjunction	negative	1	Null	hit	F	5807	2	17499512	1	6000	1	0	next
disjunction	negative	15	Null	hit	F	8710	2	17530847	1	8834	1	0	next
disjunction	positive	5	T_blue	hit	J	5901	2	17565016	1	6000	1	0	next
disjunction	positive	15	S_brown	hit	J	7686	2	17596351	1	7834	1	0	next
disjunction	negative	5	Null	hit	F	10999	2	17629520	1	11167	1	0	next
disjunction	positive	5	S_brown	hit	J	9536	2	17666022	1	9667	1	0	next
disjunction	positive	30	S_brown	hit	J	11177	2	17701025	1	11334	1	0	next
disjunction	negative	15	Null	hit	F	8273	2	17737694	1	8334	1	0	next
disjunction	negative	15	Null	hit	F	7721	2	17771363	1	7834	1	0	next
disjunction	negative	15	Null	hit	F	10551	2	17804531	1	10667	1	0	next
disjunction	positive	30	S_brown	hit	J	6712	2	17840534	1	6834	1	0	next
disjunction	positive	15	X_blue	hit	J	5744	2	17872702	1	5834	1	0	next
disjunction	positive	30	S_brown	hit	J	4818	2	17903871	1	5000	1	0	next
disjunction	negative	1	Null	hit	F	5680	2	17934206	1	5834	1	0	next
disjunction	positive	30	T_blue	hit	J	5232	2	17965375	1	5334	1	0	next
disjunction	negative	5	Null	hit	F	7845	2	17996044	1	8001	1	0	next
disjunction	positive	30	T_blue	hit	J	5228	2	18029379	1	5334	1	0	next
disjunction	negative	5	Null	hit	F	7522	2	18060048	1	7667	1	0	next
disjunction	negative	1	Null	hit	F	7007	2	18093050	1	7167	1	0	next
disjunction	positive	30	T_blue	hit	J	6818	2	18125552	1	7000	1	0	next
disjunction	positive	5	T_blue	hit	J	5523	2	18157887	1	5667	1	0	next
disjunction	positive	15	T_blue	hit	J	3966	2	18188889	1	4167	1	0	next
disjunction	positive	15	T_blue	hit	J	4861	2	18218391	1	5000	1	0	next
disjunction	negative	1	Null	hit	F	5092	2	18248726	1	5167	1	0	next
disjunction	negative	1	Null	hit	F	4829	2	18279229	1	5000	1	0	next
disjunction	negative	1	Null	hit	F	4093	2	18309564	1	4167	1	0	next
disjunction	positive	1	T_blue	hit	J	3870	2	18359067	1	4000	1	0	next
disjunction	negative	30	Null	hit	F	9740	2	18388402	1	9834	1	0	next
disjunction	positive	5	S_green	incorrect	F	5769	2	18423571	1	5834	1	0	next
disjunction	positive	1	S_green	hit	J	4681	2	18454740	1	4834	1	0	next
disjunction	positive	5	S_brown	hit	J	4915	2	18484908	1	5000	1	0	next
disjunction	positive	5	T_blue	hit	J	4340	2	18515244	1	4500	1	0	next
disjunction	negative	1	Null	hit	F	5384	2	18545079	1	5500	1	0	next
disjunction	negative	15	Null	hit	F	21588	2	18575914	1	21668	1	0	next
disjunction	negative	5	Null	hit	F	7866	2	18622917	1	8001	1	0	next
disjunction	positive	1	T_blue	hit	J	5255	2	18656253	1	5334	1	0	next
disjunction	positive	1	T_blue	hit	J	5786	2	18686921	1	5834	1	0	next
disjunction	negative	5	Null	hit	F	5177	2	18718090	1	5334	1	0	next
disjunction	negative	1	Null	hit	F	6509	2	18748759	1	6667	1	0	next
disjunction	negative	15	Null	hit	F	8586	2	18780761	1	8667	1	0	next
disjunction	positive	30	S_brown	hit	J	6270	2	18814763	1	6334	1	0	next
disjunction	negative	5	Null	hit	F	6120	2	18846432	1	6167	1	0	next
disjunction	positive	1	T_blue	hit	J	5178	2	18877934	1	5334	1	0	next
disjunction	negative	1	Null	hit	F	4911	2	18908602	1	5000	1	0	next
disjunction	negative	15	Null	hit	F	9776	2	18938938	1	9834	1	0	next
disjunction	positive	30	T_blue	hit	J	5329	2	18974106	1	5500	1	0	next
disjunction	positive	1	T_blue	hit	J	4576	2	19004942	1	4667	1	0	next
disjunction	negative	1	Null	hit	F	4652	2	19034944	1	4834	1	0	next
disjunction	positive	1	X_blue	incorrect	F	5524	2	19065112	1	5667	1	0	next
disjunction	negative	15	Null	hit	F	9400	2	19096114	1	9501	1	0	next
disjunction	positive	30	S_brown	hit	J	5450	2	19130950	1	5500	1	0	next
disjunction	negative	5	Null	hit	F	6135	2	19161785	1	6334	1	0	next
disjunction	negative	1	Null	hit	F	5184	2	19193454	1	5334	1	0	next
disjunction	positive	1	S_brown	hit	J	5237	2	19224122	1	5334	1	0	next
disjunction	positive	5	S_green	incorrect	F	5771	2	19254791	1	5834	1	0	next
disjunction	negative	1	Null	hit	F	5320	2	19285960	1	5500	1	0	next
disjunction	positive	5	S_brown	hit	J	5846	2	19316795	1	6000	1	0	next
disjunction	positive	5	T_blue	hit	J	5716	2	19348130	1	5834	1	0	next
disjunction	negative	5	Null	hit	F	9262	2	19379299	1	9334	1	0	next
disjunction	positive	15	X_blue	hit	J	5799	2	19413968	1	5834	1	0	next
disjunction	positive	30	S_green	incorrect	F	10630	2	19445137	1	10667	1	0	next
disjunction	negative	15	Null	hit	F	11109	2	19481139	1	11167	1	0	next
disjunction	positive	15	X_blue	hit	J	5647	2	19517641	1	5834	1	0	next
disjunction	negative	15	Null	hit	F	19436	2	19548810	1	19501	1	0	next
disjunction	negative	5	Null	hit	F	12203	2	19593646	1	12334	1	0	next
disjunction	negative	15	Null	hit	F	15817	2	19631315	1	16001	1	0	next
disjunction	negative	15	Null	hit	F	6482	2	19672651	1	6667	1	0	next
disjunction	positive	30	X_blue	hit	J	5358	2	19704653	1	5500	1	0	next
disjunction	negative	1	Null	hit	F	5726	2	19735489	1	5834	1	0	next
disjunction	negative	15	Null	hit	F	10079	2	19766657	1	10167	1	0	next
disjunction	positive	30	S_green	incorrect	F	14737	2	19802160	1	14834	1	0	next
disjunction	negative	5	Null	hit	F	6729	2	19842329	1	6834	1	0	next
disjunction	positive	1	S_green	hit	J	5117	2	19874498	1	5167	1	0	next
disjunction	positive	30	X_blue	hit	J	5017	2	19904999	1	5167	1	0	next
disjunction	positive	15	X_blue	hit	J	4599	2	19935501	1	4667	1	0	next
disjunction	negative	1	Null	incorrect	J	4353	2	19965503	1	4500	1	0	next
disjunction	positive	5	S_green	hit	J	6044	2	19995339	1	6167	1	0	next
disjunction	negative	30	Null	hit	F	7821	2	20026841	1	8000	1	0	next
disjunction	negative	15	Null	hit	F	11448	2	20060176	1	11501	1	0	next
disjunction	negative	30	Null	hit	F	9010	2	20097012	1	9167	1	0	next
disjunction	positive	30	T_blue	hit	J	6189	2	20131514	1	6334	1	0	next
disjunction	positive	15	T_blue	hit	J	5399	2	20163183	1	5500	1	0	next
disjunction	positive	1	T_blue	hit	J	8649	2	20194018	1	8834	1	0	next
disjunction	positive	5	S_brown	hit	J	6001	2	20228187	1	6167	1	0	next
disjunction	positive	5	X_blue	hit	J	18501	2	20259689	1	18668	1	0	next
disjunction	positive	30	S_green	hit	J	12738	2	20303692	1	12834	1	0	next
disjunction	negative	5	Null	hit	F	6408	2	20341861	1	6500	1	0	next
disjunction	positive	5	T_blue	hit	J	5132	2	20373696	1	5167	1	0	next
disjunction	positive	30	X_blue	hit	J	5834	2	20404198	1	6000	1	0	next
disjunction	negative	1	Null	hit	F	5379	2	20435534	1	5500	1	0	next
disjunction	negative	30	Null	hit	F	13745	2	20466369	1	13834	1	0	next
disjunction	negative	15	Null	hit	F	5136	2	20505538	1	5334	1	0	next
disjunction	negative	15	Null	hit	F	7749	2	20536207	1	7834	1	0	next
disjunction	positive	15	X_blue	hit	J	5138	2	20569375	1	5334	1	0	next
disjunction	positive	1	S_brown	hit	J	5350	2	20600044	1	5500	1	0	next
disjunction	positive	30	S_brown	hit	J	6036	2	20630879	1	6167	1	0	next
disjunction	negative	1	Null	hit	F	6853	2	20662381	1	7000	1	0	next
disjunction	positive	5	S_brown	hit	J	5562	2	20694717	1	5667	1	0	next
disjunction	negative	15	Null	hit	F	10721	2	20725719	1	10834	1	0	next
disjunction	positive	15	X_blue	hit	J	5273	2	20761888	1	5334	1	0	next
disjunction	negative	15	Null	hit	F	6921	2	20792556	1	7000	1	0	next
disjunction	positive	5	S_brown	hit	J	5149	2	20824892	1	5334	1	0	next
disjunction	positive	15	S_green	hit	J	9681	2	20855560	1	9834	1	0	next
disjunction	negative	5	Null	hit	F	7952	2	20890729	1	8000	1	0	next
disjunction	positive	5	S_green	hit	J	9498	2	20924065	1	9667	1	0	next
disjunction	negative	5	Null	hit	F	10015	2	20959067	1	10167	1	0	next
disjunction	positive	5	T_blue	hit	J	5395	2	20994569	1	5500	1	0	next
disjunction	positive	30	S_green	hit	J	6083	2	21025405	1	6167	1	0	next
disjunction	negative	5	Null	hit	F	9942	2	21056907	1	10001	1	0	next
disjunction	negative	15	Null	hit	F	10286	2	21092242	1	10334	1	0	next
disjunction	positive	5	S_green	incorrect	F	7421	2	21127911	1	7500	1	0	next
disjunction	positive	30	T_blue	hit	J	5305	2	21160747	1	5500	1	0	next
disjunction	positive	15	X_blue	hit	J	5346	2	21191582	1	5500	1	0	next
disjunction	negative	5	Null	hit	F	7315	2	21222417	1	7500	1	0	next
disjunction	positive	1	S_brown	hit	J	5359	2	21255253	1	5500	1	0	next
disjunction	negative	1	Null	hit	F	7326	2	21286088	1	7500	1	0	next
disjunction	positive	15	T_blue	hit	J	5368	2	21318924	1	5500	1	0	next
disjunction	negative	15	Null	hit	F	9574	2	21349759	1	9667	1	0	next
disjunction	negative	5	Null	hit	F	6894	2	21384761	1	7000	1	0	next
disjunction	negative	30	Null	hit	F	12961	2	21417097	1	13001	1	0	next
disjunction	positive	30	S_brown	hit	J	7907	2	21455432	1	8000	1	0	next
disjunction	positive	30	S_green	hit	J	8968	2	21488768	1	9001	1	0	next
disjunction	negative	1	Null	hit	F	5837	2	21523103	1	6000	1	0	next
disjunction	positive	1	T_blue	hit	J	6343	2	21554439	1	6500	1	0	next
disjunction	negative	1	Null	hit	F	6344	2	21586274	1	6500	1	0	next
disjunction	negative	5	Null	hit	F	9392	2	21618109	1	9501	1	0	next
disjunction	negative	1	Null	hit	F	8157	2	21652945	1	8334	1	0	next
disjunction	positive	30	X_blue	hit	J	5847	2	21686614	1	6000	1	0	next
disjunction	positive	5	X_blue	hit	J	5552	2	21717949	1	5667	1	0	next
disjunction	negative	5	Null	incorrect	J	7033	2	21748951	1	7167	1	0	next
disjunction	negative	5	Null	hit	F	8453	2	21781453	1	8501	1	0	next
disjunction	positive	15	S_brown	hit	J	6137	2	21815289	1	6334	1	0	next
disjunction	positive	1	X_blue	hit	J	5510	2	21846957	1	5667	1	0	next
disjunction	positive	1	X_blue	hit	J	5708	2	21877959	1	5834	1	0	next
disjunction	positive	15	S_brown	hit	J	5101	2	21909128	1	5167	1	0	next
disjunction	negative	1	Null	hit	F	7081	2	21939630	1	7167	1	0	next
disjunction	negative	1	Null	hit	F	5615	2	21972132	1	5667	1	0	next
disjunction	positive	15	X_blue	hit	J	6457	2	22003134	1	6500	1	0	next
disjunction	negative	30	Null	hit	F	13987	2	22034970	1	14168	1	0	next
disjunction	positive	15	S_green	hit	J	9520	2	22074472	1	9667	1	0	next
disjunction	positive	1	S_green	hit	J	5721	2	22109474	1	5834	1	0	next
disjunction	positive	15	S_green	incorrect	F	7191	2	22140643	1	7334	1	0	next
disjunction	negative	30	Null	hit	F	16926	2	22173312	1	17001	1	0	next
disjunction	positive	15	S_brown	hit	J	7390	2	22215648	1	7500	1	0	next
disjunction	negative	30	Null	incorrect	J	7192	2	22248483	1	7334	1	0	next
disjunction	negative	30	Null	hit	F	13250	2	22281152	1	13334	1	0	next
disjunction	positive	15	S_brown	hit	J	14740	2	22319821	1	14834	1	0	next
disjunction	negative	30	Null	hit	F	17452	2	22359990	1	17501	1	0	next
disjunction	negative	30	Null	hit	F	12053	2	22402826	1	12167	1	0	next
disjunction	negative	30	Null	hit	F	11835	2	22440329	1	12001	1	0	next
disjunction	negative	30	Null	hit	F	10018	2	22477665	1	10167	1	0	next
disjunction	negative	30	Null	hit	F	8119	2	22513167	1	8167	1	0	next
disjunction	negative	30	Null	hit	F	6453	2	22546669	1	6500	1	0	next
disjunction	negative	30	Null	hit	F	7262	2	22578504	1	7334	1	0	next
conjunction	negative	30	Null	hit	F	13345	2	22646342	1	13501	1	0	next
conjunction	negative	15	Null	hit	F	9231	2	22685178	1	9334	1	0	next
conjunction	negative	5	Null	hit	F	7843	2	22719847	1	8001	1	0	next
conjunction	negative	1	Null	hit	F	6826	2	22753182	1	7000	1	0	next
conjunction	negative	5	Null	hit	F	5211	2	22785518	1	5334	1	0	next
conjunction	positive	1	T_green	hit	J	8626	2	22816186	1	8667	1	0	next
conjunction	negative	15	Null	hit	F	11104	2	22850189	1	11167	1	0	next
conjunction	negative	30	Null	hit	F	9002	2	22886691	1	9167	1	0	next
conjunction	positive	30	T_green	hit	J	9545	2	22921193	1	9667	1	0	next
conjunction	negative	5	Null	hit	F	7018	2	22956195	1	7167	1	0	next
conjunction	negative	15	Null	hit	F	7801	2	22988697	1	8001	1	0	next
conjunction	positive	1	T_green	hit	J	5824	2	23022033	1	6000	1	0	next
conjunction	negative	1	Null	hit	F	7290	2	23053368	1	7334	1	0	next
conjunction	positive	15	T_green	incorrect	F	12860	2	23086037	1	13001	1	0	next
conjunction	positive	15	T_green	hit	J	11485	2	23124373	1	11667	1	0	next
conjunction	positive	1	T_green	hit	J	5043	2	23161375	1	5167	1	0	next
conjunction	negative	1	Null	hit	F	6068	2	23191877	1	6167	1	0	next
conjunction	negative	15	Null	hit	F	9765	2	23223379	1	9834	1	0	next
conjunction	positive	30	T_green	hit	J	6917	2	23258548	1	7000	1	0	next
conjunction	negative	5	Null	hit	F	7222	2	23290883	1	7334	1	0	next
conjunction	positive	5	T_green	hit	J	8154	2	23323552	1	8334	1	0	next
conjunction	positive	15	T_green	hit	J	5363	2	23357221	1	5500	1	0	next
conjunction	negative	30	Null	hit	F	11331	2	23388056	1	11501	1	0	next
conjunction	negative	1	Null	hit	F	6493	2	23424892	1	6667	1	0	next
conjunction	negative	30	Null	hit	F	10335	2	23456894	1	10501	1	0	next
conjunction	negative	30	Null	hit	F	9698	2	23492730	1	9834	1	0	next
conjunction	negative	5	Null	hit	F	7493	2	23527899	1	7667	1	0	next
conjunction	positive	15	T_green	hit	J	6973	2	23560901	1	7167	1	0	next
conjunction	negative	1	Null	hit	F	5347	2	23593403	1	5500	1	0	next
conjunction	positive	1	T_green	hit	J	5396	2	23624238	1	5500	1	0	next
conjunction	positive	1	T_green	hit	J	4958	2	23655074	1	5000	1	0	next
conjunction	negative	30	Null	hit	F	11587	2	23685409	1	11667	1	0	next
conjunction	positive	1	T_green	hit	J	4985	2	23722411	1	5167	1	0	next
conjunction	negative	1	Null	hit	F	6964	2	23752913	1	7167	1	0	next
conjunction	negative	30	Null	hit	F	10943	2	23785415	1	11001	1	0	next
conjunction	positive	15	T_green	incorrect	F	5164	2	23821751	1	5334	1	0	next
conjunction	positive	1	T_green	hit	J	4580	2	23852420	1	4667	1	0	next
conjunction	negative	15	Null	hit	F	7856	2	23882421	1	8000	1	0	next
conjunction	negative	1	Null	hit	F	7805	2	23915757	1	8001	1	0	next
conjunction	positive	1	T_green	hit	J	5347	2	23949092	1	5500	1	0	next
conjunction	negative	1	Null	hit	F	6033	2	23979928	1	6167	1	0	next
conjunction	negative	5	Null	hit	F	6530	2	24011430	1	6667	1	0	next
conjunction	positive	5	T_green	hit	J	9092	2	24043432	1	9167	1	0	next
conjunction	positive	1	T_green	hit	J	4831	2	24077934	1	5000	1	0	next
conjunction	negative	30	Null	hit	F	13212	2	24108269	1	13334	1	0	next
conjunction	negative	1	Null	hit	F	6075	2	24146938	1	6167	1	0	next
conjunction	negative	30	Null	hit	F	10084	2	24178440	1	10167	1	0	next
conjunction	negative	1	Null	hit	F	6905	2	24213943	1	7001	1	0	next
conjunction	negative	1	Null	hit	F	8169	2	24246278	1	8334	1	0	next
conjunction	positive	30	T_green	incorrect	F	6980	2	24279947	1	7167	1	0	next
conjunction	positive	5	T_green	hit	J	4398	2	24312449	1	4500	1	0	next
conjunction	negative	30	Null	hit	F	8646	2	24342284	1	8834	1	0	next
conjunction	positive	15	T_green	hit	J	7119	2	24376453	1	7167	1	0	next
conjunction	negative	30	Null	hit	F	14619	2	24408955	1	14668	1	0	next
conjunction	positive	15	T_green	hit	J	6454	2	24448958	1	6500	1	0	next
conjunction	negative	15	Null	hit	F	9343	2	24480793	1	9501	1	0	next
conjunction	positive	15	T_green	hit	J	6667	2	24515629	1	6834	1	0	next
conjunction	positive	1	T_green	incorrect	F	15777	2	24547797	1	15834	1	0	next
conjunction	positive	5	T_green	hit	J	6131	2	24588967	1	6167	1	0	next
conjunction	positive	5	T_green	hit	J	6469	2	24620469	1	6500	1	0	next
conjunction	positive	5	T_green	hit	J	7272	2	24652304	1	7334	1	0	next
conjunction	negative	15	Null	incorrect	J	20525	2	24684973	1	20668	1	0	next
conjunction	negative	30	Null	hit	F	14047	2	24730976	1	14168	1	0	next
conjunction	negative	1	Null	hit	F	6381	2	24770478	1	6500	1	0	next
conjunction	negative	5	Null	hit	F	6706	2	24802314	1	6834	1	0	next
conjunction	positive	15	T_green	hit	J	5579	2	24834483	1	5667	1	0	next
conjunction	negative	5	Null	hit	F	7858	2	24865485	1	8000	1	0	next
conjunction	positive	15	T_green	hit	J	5886	2	24898820	1	6000	1	0	next
conjunction	positive	30	T_green	hit	J	10867	2	24930155	1	11001	1	0	next
conjunction	positive	1	T_green	hit	J	6694	2	24966491	1	6834	1	0	next
conjunction	negative	5	Null	hit	F	7009	2	24998660	1	7167	1	0	next
conjunction	positive	30	T_green	incorrect	F	7307	2	25031162	1	7501	1	0	next
conjunction	positive	15	T_green	hit	J	8393	2	25063997	1	8501	1	0	next
conjunction	positive	1	T_green	hit	J	5595	2	25097833	1	5667	1	0	next
conjunction	positive	1	T_green	hit	J	4194	2	25128835	1	4334	1	0	next
conjunction	positive	15	T_green	hit	J	6049	2	25158503	1	6167	1	0	next
conjunction	negative	1	Null	hit	F	6068	2	25190005	1	6167	1	0	next
conjunction	positive	30	T_green	hit	J	4964	2	25221507	1	5000	1	0	next
conjunction	negative	15	Null	hit	F	8555	2	25251843	1	8667	1	0	next
conjunction	positive	5	T_green	hit	J	5588	2	25285845	1	5667	1	0	next
conjunction	negative	30	Null	hit	F	9469	2	25316847	1	9667	1	0	next
conjunction	negative	5	Null	hit	F	5667	2	25351849	1	5834	1	0	next
conjunction	negative	15	Null	hit	F	13859	2	25383018	1	14001	1	0	next
conjunction	negative	15	Null	hit	F	8925	2	25422354	1	9000	1	0	next
conjunction	negative	15	Null	hit	F	9951	2	25456689	1	10001	1	0	next
conjunction	positive	15	T_green	incorrect	F	6616	2	25492025	1	6667	1	0	next
conjunction	positive	5	T_green	incorrect	F	6455	2	25524027	1	6500	1	0	next
conjunction	positive	5	T_green	hit	J	6781	2	25555862	1	6834	1	0	next
conjunction	negative	30	Null	hit	F	17489	2	25588031	1	17668	1	0	next
conjunction	negative	30	Null	hit	F	25849	2	25631034	1	26002	1	0	next
conjunction	negative	5	Null	incorrect	J	6192	2	25682370	1	6334	1	0	next
conjunction	negative	1	Null	incorrect	J	5089	2	25714039	1	5167	1	0	next
conjunction	positive	15	T_green	hit	J	9306	2	25744541	1	9501	1	0	next
conjunction	negative	1	Null	hit	F	5831	2	25779377	1	6000	1	0	next
conjunction	positive	1	T_green	hit	J	5534	2	25810712	1	5667	1	0	next
conjunction	positive	15	T_green	hit	J	5252	2	25841714	1	5334	1	0	next
conjunction	negative	5	Null	hit	F	7384	2	25872383	1	7500	1	0	next
conjunction	negative	15	Null	hit	F	12154	2	25905218	1	12334	1	0	next
conjunction	positive	1	T_green	hit	J	6326	2	25942887	1	6500	1	0	next
conjunction	negative	1	Null	hit	F	6813	2	25974722	1	7000	1	0	next
conjunction	positive	1	T_green	hit	J	14795	2	26007058	1	14834	1	0	next
conjunction	positive	30	T_green	hit	J	12866	2	26047227	1	13001	1	0	next
conjunction	negative	30	Null	hit	F	9574	2	26085563	1	9667	1	0	next
conjunction	positive	30	T_green	hit	J	7210	2	26120565	1	7334	1	0	next
conjunction	positive	15	T_green	hit	J	7022	2	26153234	1	7167	1	0	next
conjunction	positive	30	T_green	hit	J	16122	2	26185736	1	16168	1	0	next
conjunction	negative	15	Null	hit	F	8538	2	26227239	1	8667	1	0	next
conjunction	negative	5	Null	hit	F	6697	2	26261241	1	6834	1	0	next
conjunction	positive	5	T_green	incorrect	F	7010	2	26293410	1	7167	1	0	next
conjunction	positive	30	T_green	hit	J	10988	2	26325912	1	11167	1	0	next
conjunction	positive	30	T_green	hit	J	10327	2	26362414	1	10501	1	0	next
conjunction	negative	15	Null	hit	F	9370	2	26398250	1	9501	1	0	next
conjunction	positive	5	T_green	hit	J	5258	2	26433085	1	5334	1	0	next
conjunction	positive	5	T_green	hit	J	4988	2	26463754	1	5167	1	0	next
conjunction	negative	5	Null	hit	F	6808	2	26494256	1	7000	1	0	next
conjunction	positive	5	T_green	hit	J	5996	2	26526591	1	6167	1	0	next
conjunction	positive	30	T_green	hit	J	7617	2	26558093	1	7667	1	0	next
conjunction	positive	5	T_green	hit	J	5812	2	26591095	1	6000	1	0	next
conjunction	positive	5	T_green	hit	J	4718	2	26622431	1	4834	1	0	next
conjunction	negative	15	Null	hit	F	16628	2	26652599	1	16668	1	0	next
conjunction	positive	30	T_green	incorrect	F	10949	2	26694602	1	11001	1	0	next
conjunction	negative	15	Null	hit	F	13175	2	26730938	1	13334	1	0	next
conjunction	negative	5	Null	hit	F	7304	2	26769607	1	7334	1	0	next
conjunction	negative	5	Null	hit	F	6636	2	26802276	1	6667	1	0	next
conjunction	positive	30	T_green	incorrect	F	8881	2	26834278	1	9001	1	0	next
conjunction	positive	5	T_green	hit	J	5264	2	26868613	1	5334	1	0	next
conjunction	positive	30	T_green	hit	J	7074	2	26899282	1	7167	1	0	next
conjunction	positive	30	T_green	hit	J	16331	2	26931784	1	16501	1	0	next
