Target_Type	Trial_Type	Display_Size	Target	Response	Key_press	RT	Uncertainty	Time	Uncertainty	Duration	Uncertainty	ReqTime	ReqDur
disjunction	positive	15	T_blue	hit	J	14249	2	123881	1	14334	1	0	next
disjunction	negative	15	Null	hit	F	8505	2	163550	1	8667	1	0	next
disjunction	negative	15	Null	hit	F	11621	2	197552	1	11667	1	0	next
disjunction	negative	1	Null	hit	F	8540	2	234555	1	8667	1	0	next
disjunction	negative	15	Null	hit	F	25740	2	268557	1	25835	1	0	next
disjunction	positive	5	X_blue	hit	J	9773	2	319727	1	9834	1	0	next
disjunction	negative	30	Null	hit	F	30286	2	354896	1	30335	1	0	next
disjunction	negative	30	Null	hit	F	25173	2	410566	1	25335	1	0	next
disjunction	negative	5	Null	hit	F	16263	2	461236	1	16334	1	0	next
disjunction	positive	5	S_green	hit	J	11718	2	502905	1	11834	1	0	next
disjunction	positive	1	X_blue	hit	J	6712	2	540074	1	6834	1	0	next
disjunction	negative	1	Null	hit	F	9585	2	572243	1	9667	1	0	next
disjunction	negative	30	Null	hit	F	23218	2	607245	1	23335	1	0	next
disjunction	negative	1	Null	incorrect	J	7029	2	655915	1	7167	1	0	next
disjunction	positive	15	T_blue	hit	J	14686	2	688417	1	14834	1	0	next
disjunction	positive	15	T_blue	hit	J	15639	2	728586	1	15834	1	0	next
disjunction	negative	30	Null	hit	F	18154	2	769756	1	18334	1	0	next
disjunction	negative	15	Null	incorrect	J	15124	2	813425	1	15168	1	0	next
disjunction	positive	5	S_brown	hit	J	9501	2	853928	1	9667	1	0	next
disjunction	positive	5	S_green	hit	J	24742	2	888930	1	24835	1	0	next
disjunction	positive	1	S_brown	hit	J	7851	2	939100	1	8001	1	0	next
disjunction	positive	5	S_brown	hit	J	11479	2	972435	1	11667	1	0	next
disjunction	positive	5	X_blue	incorrect	F	15276	2	1009438	1	15334	1	0	next
disjunction	negative	1	Null	incorrect	J	8527	2	1050107	1	8667	1	0	next
disjunction	positive	5	X_blue	hit	J	10845	2	1084109	1	11001	1	0	next
disjunction	negative	1	Null	hit	F	21394	2	1120445	1	21501	1	0	next
disjunction	positive	30	T_blue	hit	J	22556	2	1167281	1	22668	1	0	next
disjunction	positive	30	T_blue	hit	J	24634	2	1215284	1	24668	1	0	next
disjunction	negative	30	Null	hit	F	22313	2	1265287	1	22501	1	0	next
disjunction	positive	5	S_green	hit	J	19438	2	1313124	1	19501	1	0	next
disjunction	negative	5	Null	incorrect	J	38445	2	1357960	1	38502	1	0	next
disjunction	positive	5	T_blue	hit	J	7730	2	1421797	1	7834	1	0	next
disjunction	positive	15	X_blue	hit	J	15519	2	1454966	1	15668	1	0	next
disjunction	positive	5	T_blue	hit	J	10198	2	1495969	1	10334	1	0	next
disjunction	positive	5	S_green	hit	J	18528	2	1531638	1	18668	1	0	next
disjunction	positive	5	S_green	hit	J	9409	2	1575641	1	9501	1	0	next
disjunction	negative	1	Null	hit	F	17775	2	1610476	1	17834	1	0	next
disjunction	positive	1	S_brown	incorrect	F	7405	2	1653646	1	7500	1	0	next
disjunction	positive	1	S_green	hit	J	6093	2	1686481	1	6167	1	0	next
disjunction	negative	15	Null	hit	F	45312	2	1717983	1	45503	1	0	next
disjunction	positive	30	S_brown	hit	J	15594	2	1788821	1	15668	1	0	next
disjunction	negative	15	Null	hit	F	14914	2	1829824	1	15001	1	0	next
disjunction	negative	5	Null	hit	F	8979	2	1870160	1	9167	1	0	next
disjunction	negative	15	Null	hit	F	28875	2	1904662	1	29002	1	0	next
disjunction	negative	15	Null	hit	F	16461	2	1958999	1	16501	1	0	next
disjunction	positive	1	S_brown	hit	J	6783	2	2000835	1	6834	1	0	next
disjunction	positive	30	X_blue	hit	J	6459	2	2033003	1	6500	1	0	next
disjunction	positive	5	X_blue	hit	J	6144	2	2064839	1	6334	1	0	next
disjunction	negative	5	Null	hit	F	10155	2	2096507	1	10334	1	0	next
disjunction	negative	1	Null	hit	F	14168	2	2132176	1	14334	1	0	next
disjunction	negative	1	Null	hit	F	14658	2	2171846	1	14834	1	0	next
disjunction	negative	15	Null	incorrect	J	8568	2	2212015	1	8667	1	0	next
disjunction	negative	15	Null	hit	F	18088	2	2246017	1	18168	1	0	next
disjunction	positive	15	T_blue	hit	J	8825	2	2289520	1	9001	1	0	next
disjunction	negative	5	Null	hit	F	9692	2	2323855	1	9834	1	0	next
disjunction	negative	15	Null	hit	F	15965	2	2359024	1	16001	1	0	next
disjunction	negative	5	Null	hit	F	14150	2	2400360	1	14334	1	0	next
disjunction	positive	30	T_blue	hit	J	7443	2	2440029	1	7500	1	0	next
disjunction	negative	5	Null	hit	F	23569	2	2472865	1	23668	1	0	next
disjunction	negative	30	Null	hit	F	9126	2	2521868	1	9167	1	0	next
disjunction	positive	5	T_blue	hit	J	6784	2	2556370	1	6834	1	0	next
disjunction	negative	15	Null	hit	F	31418	2	2588539	1	31502	1	0	next
disjunction	negative	5	Null	hit	F	11540	2	2645376	1	11667	1	0	next
disjunction	positive	1	S_green	hit	J	6377	2	2682378	1	6500	1	0	next
disjunction	negative	15	Null	hit	F	24466	2	2714214	1	24502	1	0	next
disjunction	positive	1	S_brown	hit	J	6148	2	2764050	1	6334	1	0	next
disjunction	negative	15	Null	hit	F	20721	2	2795719	1	20835	1	0	next
disjunction	negative	30	Null	hit	F	16953	2	2841889	1	17001	1	0	next
disjunction	negative	5	Null	hit	F	9819	2	2884225	1	10001	1	0	next
disjunction	positive	30	S_brown	hit	J	9522	2	2919560	1	9667	1	0	next
disjunction	negative	1	Null	hit	F	12122	2	2954562	1	12167	1	0	next
disjunction	negative	15	Null	hit	F	8217	2	2992065	1	8334	1	0	next
disjunction	positive	5	S_brown	hit	J	7191	2	3025734	1	7334	1	0	next
disjunction	positive	1	X_blue	hit	J	9725	2	3058402	1	9834	1	0	next
disjunction	negative	30	Null	hit	F	11997	2	3093571	1	12168	1	0	next
disjunction	negative	5	Null	hit	F	10173	2	3131074	1	10334	1	0	next
disjunction	positive	30	T_blue	hit	J	7627	2	3166743	1	7667	1	0	next
disjunction	negative	1	Null	incorrect	J	9666	2	3199745	1	9834	1	0	next
disjunction	negative	15	Null	hit	F	17540	2	3234914	1	17668	1	0	next
disjunction	positive	30	S_brown	hit	J	45419	2	3277917	1	45503	1	0	next
disjunction	positive	5	T_blue	hit	J	10260	2	3348754	1	10334	1	0	next
disjunction	negative	5	Null	hit	F	10109	2	3384423	1	10167	1	0	next
disjunction	negative	30	Null	hit	F	25169	2	3419926	1	25335	1	0	next
disjunction	negative	1	Null	incorrect	J	6822	2	3470596	1	7000	1	0	next
disjunction	negative	5	Null	hit	F	9846	2	3502931	1	10001	1	0	next
disjunction	negative	5	Null	hit	F	7954	2	3538267	1	8000	1	0	next
disjunction	negative	30	Null	hit	F	15739	2	3571602	1	15834	1	0	next
disjunction	positive	30	X_blue	hit	J	7367	2	3612771	1	7500	1	0	next
disjunction	positive	15	S_green	hit	J	7336	2	3645607	1	7500	1	0	next
disjunction	negative	1	Null	hit	F	15621	2	3678442	1	15668	1	0	next
disjunction	positive	15	S_green	hit	J	6941	2	3719445	1	7000	1	0	next
disjunction	positive	1	T_blue	hit	J	6445	2	3751780	1	6500	1	0	next
disjunction	negative	1	Null	hit	F	17172	2	3783616	1	17335	1	0	next
disjunction	positive	1	S_brown	hit	J	6501	2	3826285	1	6667	1	0	next
disjunction	positive	30	X_blue	hit	J	7940	2	3858287	1	8000	1	0	next
disjunction	positive	30	X_blue	hit	J	7883	2	3891623	1	8001	1	0	next
disjunction	positive	15	S_green	hit	J	12313	2	3924958	1	12501	1	0	next
disjunction	negative	30	Null	hit	F	20399	2	3962794	1	20501	1	0	next
disjunction	positive	30	S_green	hit	J	7358	2	4008630	1	7501	1	0	next
disjunction	negative	1	Null	hit	F	8126	2	4041466	1	8167	1	0	next
disjunction	negative	5	Null	hit	F	13184	2	4074968	1	13334	1	0	next
disjunction	negative	30	Null	hit	F	21235	2	4113637	1	21335	1	0	next
disjunction	positive	15	T_blue	hit	J	6409	2	4160306	1	6500	1	0	next
disjunction	negative	1	Null	hit	F	8334	2	4192142	1	8501	1	0	next
disjunction	positive	30	X_blue	hit	J	6018	2	4225977	1	6167	1	0	next
disjunction	positive	30	S_green	hit	J	7957	2	4257479	1	8000	1	0	next
disjunction	negative	1	Null	hit	F	8225	2	4290815	1	8334	1	0	next
disjunction	negative	5	Null	hit	F	8796	2	4324484	1	8834	1	0	next
disjunction	negative	5	Null	hit	F	12389	2	4358653	1	12501	1	0	next
disjunction	negative	30	Null	hit	F	9434	2	4396488	1	9501	1	0	next
disjunction	positive	30	S_brown	hit	J	8677	2	4431324	1	8834	1	0	next
disjunction	negative	30	Null	hit	F	9390	2	4465493	1	9501	1	0	next
disjunction	negative	30	Null	hit	F	6876	2	4500328	1	7000	1	0	next
disjunction	negative	30	Null	hit	F	7502	2	4532664	1	7667	1	0	next
disjunction	positive	1	S_green	hit	J	7300	2	4565666	1	7501	1	0	next
disjunction	positive	15	S_brown	hit	J	7903	2	4598501	1	8001	1	0	next
disjunction	positive	15	S_green	hit	J	6251	2	4631837	1	6334	1	0	next
disjunction	positive	15	S_green	hit	J	6900	2	4663505	1	7000	1	0	next
disjunction	positive	15	S_brown	hit	J	5929	2	4695841	1	6000	1	0	next
disjunction	positive	30	T_blue	hit	J	7235	2	4727176	1	7334	1	0	next
disjunction	positive	15	T_blue	hit	J	6566	2	4759845	1	6667	1	0	next
disjunction	positive	15	X_blue	hit	J	7043	2	4791847	1	7167	1	0	next
disjunction	positive	1	S_brown	hit	J	5267	2	4824349	1	5334	1	0	next
disjunction	positive	1	S_green	hit	J	5958	2	4855018	1	6000	1	0	next
disjunction	positive	15	X_blue	hit	J	11581	2	4886353	1	11667	1	0	next
disjunction	positive	1	X_blue	hit	J	4656	2	4923355	1	4834	1	0	next
disjunction	positive	1	X_blue	hit	J	4731	2	4953524	1	4834	1	0	next
disjunction	positive	1	S_brown	hit	J	16963	2	4983693	1	17001	1	0	next
conjunction	positive	30	T_green	hit	J	18170	2	5173372	1	18335	1	0	next
conjunction	positive	5	T_green	hit	J	7297	2	5217041	1	7334	1	0	next
conjunction	positive	1	T_green	hit	J	5834	2	5249710	1	6000	1	0	next
conjunction	positive	5	T_green	hit	J	7298	2	5281045	1	7334	1	0	next
conjunction	negative	30	Null	incorrect	J	6469	2	5313714	1	6500	1	0	next
conjunction	positive	1	T_green	hit	J	5193	2	5345549	1	5334	1	0	next
conjunction	positive	15	T_green	hit	J	7647	2	5376218	1	7834	1	0	next
conjunction	negative	1	Null	hit	F	7440	2	5409387	1	7500	1	0	next
conjunction	negative	5	Null	hit	F	8684	2	5442222	1	8834	1	0	next
conjunction	positive	1	T_green	hit	J	6037	2	5476391	1	6167	1	0	next
conjunction	negative	30	Null	hit	F	24938	2	5507893	1	25002	1	0	next
conjunction	positive	1	T_green	hit	J	9960	2	5558230	1	10001	1	0	next
conjunction	negative	5	Null	hit	F	11588	2	5593565	1	11668	1	0	next
conjunction	negative	15	Null	hit	F	57308	2	5630568	1	57504	1	0	next
conjunction	positive	1	T_green	hit	J	8230	2	5713406	1	8334	1	0	next
conjunction	negative	15	Null	hit	F	9279	2	5747075	1	9334	1	0	next
conjunction	negative	30	Null	hit	F	26293	2	5781744	1	26335	1	0	next
conjunction	positive	5	T_green	hit	J	9669	2	5833414	1	9834	1	0	next
conjunction	negative	5	Null	hit	F	10979	2	5868583	1	11167	1	0	next
conjunction	positive	1	T_green	hit	J	7116	2	5905085	1	7167	1	0	next
conjunction	positive	1	T_green	hit	J	7094	2	5937587	1	7167	1	0	next
conjunction	positive	30	T_green	hit	J	9472	2	5970089	1	9667	1	0	next
conjunction	positive	5	T_green	incorrect	F	8549	2	6005092	1	8667	1	0	next
conjunction	negative	15	Null	hit	F	19508	2	6039094	1	19668	1	0	next
conjunction	negative	30	Null	hit	F	19470	2	6084097	1	19668	1	0	next
conjunction	positive	15	T_green	hit	J	7425	2	6129100	1	7500	1	0	next
conjunction	positive	5	T_green	hit	J	5312	2	6161935	1	5500	1	0	next
conjunction	negative	5	Null	hit	F	8555	2	6192770	1	8667	1	0	next
conjunction	positive	30	T_green	hit	J	15354	2	6226772	1	15501	1	0	next
conjunction	positive	5	T_green	hit	J	22519	2	6267608	1	22668	1	0	next
conjunction	positive	15	T_green	hit	J	10195	2	6315611	1	10334	1	0	next
conjunction	positive	30	T_green	incorrect	F	11492	2	6351280	1	11667	1	0	next
conjunction	negative	5	Null	incorrect	J	7451	2	6388283	1	7501	1	0	next
conjunction	positive	15	T_green	hit	J	11092	2	6421118	1	11167	1	0	next
conjunction	negative	30	Null	hit	F	18911	2	6457621	1	19001	1	0	next
conjunction	positive	15	T_green	hit	J	9457	2	6501957	1	9501	1	0	next
conjunction	negative	30	Null	hit	F	25824	2	6536792	1	26002	1	0	next
conjunction	positive	15	T_green	hit	J	10168	2	6588129	1	10334	1	0	next
conjunction	positive	1	T_green	hit	J	5858	2	6623798	1	6000	1	0	next
conjunction	positive	30	T_green	hit	J	13724	2	6655133	1	13834	1	0	next
conjunction	positive	15	T_green	hit	J	9277	2	6694303	1	9334	1	0	next
conjunction	negative	1	Null	incorrect	J	16527	2	6728971	1	16668	1	0	next
conjunction	positive	15	T_green	incorrect	F	13406	2	6770974	1	13501	1	0	next
conjunction	negative	1	Null	hit	F	10569	2	6809810	1	10667	1	0	next
conjunction	negative	30	Null	hit	F	28172	2	6845812	1	28335	1	0	next
conjunction	positive	5	T_green	incorrect	F	17060	2	6899482	1	17168	1	0	next
conjunction	negative	1	Null	hit	F	9439	2	6941985	1	9501	1	0	next
conjunction	negative	15	Null	hit	F	10766	2	6976821	1	10834	1	0	next
conjunction	negative	1	Null	hit	F	6119	2	7012990	1	6167	1	0	next
conjunction	negative	30	Null	hit	F	21657	2	7044492	1	21835	1	0	next
conjunction	positive	1	T_green	hit	J	12889	2	7091661	1	13001	1	0	next
conjunction	negative	5	Null	hit	F	9274	2	7129997	1	9334	1	0	next
conjunction	positive	15	T_green	incorrect	F	9483	2	7164666	1	9667	1	0	next
conjunction	negative	5	Null	hit	F	9522	2	7199668	1	9667	1	0	next
conjunction	negative	1	Null	hit	F	17885	2	7234671	1	18001	1	0	next
conjunction	positive	1	T_green	hit	J	6549	2	7278007	1	6667	1	0	next
conjunction	negative	30	Null	hit	F	14384	2	7310009	1	14501	1	0	next
conjunction	positive	15	T_green	hit	J	7028	2	7349845	1	7167	1	0	next
conjunction	negative	15	Null	hit	F	23172	2	7382347	1	23335	1	0	next
conjunction	negative	5	Null	hit	F	29860	2	7431016	1	30002	1	0	next
conjunction	negative	1	Null	incorrect	J	7165	2	7486353	1	7334	1	0	next
conjunction	positive	30	T_green	hit	J	17377	2	7519022	1	17501	1	0	next
conjunction	positive	5	T_green	hit	J	7984	2	7561858	1	8167	1	0	next
conjunction	positive	1	T_green	hit	J	6163	2	7595360	1	6334	1	0	next
conjunction	positive	30	T_green	hit	J	22333	2	7627029	1	22501	1	0	next
conjunction	negative	5	Null	hit	F	14980	2	7674865	1	15168	1	0	next
conjunction	negative	30	Null	incorrect	J	14959	2	7715368	1	15001	1	0	next
conjunction	positive	30	T_green	hit	J	22302	2	7755704	1	22502	1	0	next
conjunction	negative	1	Null	hit	F	9186	2	7803540	1	9334	1	0	next
conjunction	negative	15	Null	hit	F	10838	2	7838209	1	11001	1	0	next
conjunction	positive	5	T_green	hit	J	10985	2	7874545	1	11167	1	0	next
conjunction	negative	5	Null	hit	F	20247	2	7911047	1	20335	1	0	next
conjunction	negative	1	Null	hit	F	23694	2	7956717	1	23835	1	0	next
conjunction	positive	5	T_green	hit	J	13885	2	8005887	1	14001	1	0	next
conjunction	negative	30	Null	hit	F	30393	2	8045223	1	30502	1	0	next
conjunction	positive	5	T_green	hit	J	8796	2	8101059	1	8834	1	0	next
conjunction	negative	1	Null	hit	F	27108	2	8135228	1	27168	1	0	next
conjunction	negative	1	Null	hit	F	38926	2	8187732	1	39003	1	0	next
conjunction	positive	15	T_green	hit	J	19390	2	8252069	1	19501	1	0	next
conjunction	negative	5	Null	incorrect	J	6394	2	8296905	1	6500	1	0	next
conjunction	positive	1	T_green	hit	J	7679	2	8328741	1	7834	1	0	next
conjunction	positive	15	T_green	hit	J	14673	2	8361910	1	14834	1	0	next
conjunction	positive	15	T_green	hit	J	6182	2	8402079	1	6334	1	0	next
conjunction	negative	5	Null	hit	F	7157	2	8433747	1	7334	1	0	next
conjunction	positive	15	T_green	hit	J	8571	2	8466416	1	8667	1	0	next
conjunction	negative	1	Null	hit	F	10890	2	8500418	1	11001	1	0	next
conjunction	positive	1	T_green	incorrect	F	10713	2	8536754	1	10834	1	0	next
conjunction	negative	1	Null	hit	F	8944	2	8572923	1	9001	1	0	next
conjunction	positive	5	T_green	hit	J	8848	2	8607259	1	9001	1	0	next
conjunction	negative	15	Null	hit	F	26996	2	8641594	1	27168	1	0	next
conjunction	positive	30	T_green	hit	J	18174	2	8694098	1	18334	1	0	next
conjunction	negative	15	Null	hit	F	21386	2	8737767	1	21501	1	0	next
conjunction	positive	5	T_green	hit	J	12470	2	8784603	1	12667	1	0	next
conjunction	negative	15	Null	hit	F	14785	2	8822606	1	14834	1	0	next
conjunction	positive	30	T_green	hit	J	6461	2	8862775	1	6500	1	0	next
conjunction	negative	1	Null	hit	F	22147	2	8894610	1	22335	1	0	next
conjunction	positive	30	T_green	incorrect	F	16874	2	8942280	1	17001	1	0	next
conjunction	positive	30	T_green	hit	J	18381	2	8984616	1	18501	1	0	next
conjunction	negative	5	Null	hit	F	8783	2	9028452	1	8834	1	0	next
conjunction	negative	1	Null	hit	F	24536	2	9062621	1	24668	1	0	next
conjunction	positive	1	T_green	hit	J	5896	2	9112624	1	6000	1	0	next
conjunction	negative	5	Null	hit	F	23681	2	9143960	1	23835	1	0	next
conjunction	positive	30	T_green	hit	J	20915	2	9193130	1	21001	1	0	next
conjunction	positive	1	T_green	hit	J	6096	2	9239466	1	6167	1	0	next
conjunction	negative	30	Null	hit	F	23238	2	9270968	1	23335	1	0	next
conjunction	positive	15	T_green	hit	J	10408	2	9319638	1	10501	1	0	next
conjunction	negative	5	Null	hit	F	8492	2	9355473	1	8667	1	0	next
conjunction	positive	15	T_green	hit	J	10490	2	9389475	1	10667	1	0	next
conjunction	positive	1	T_green	hit	J	7769	2	9425478	1	7834	1	0	next
conjunction	positive	5	T_green	hit	J	6121	2	9458647	1	6167	1	0	next
conjunction	positive	5	T_green	hit	J	9019	2	9490149	1	9167	1	0	next
conjunction	positive	5	T_green	hit	J	7320	2	9524651	1	7500	1	0	next
conjunction	positive	30	T_green	hit	J	12886	2	9557486	1	13001	1	0	next
conjunction	positive	30	T_green	hit	J	21268	2	9595822	1	21335	1	0	next
conjunction	positive	30	T_green	hit	J	27886	2	9642492	1	28002	1	0	next
conjunction	negative	15	Null	hit	F	15987	2	9695828	1	16168	1	0	next
conjunction	negative	5	Null	hit	F	10007	2	9737331	1	10167	1	0	next
conjunction	negative	30	Null	hit	F	15142	2	9772833	1	15334	1	0	next
conjunction	negative	15	Null	hit	F	19437	2	9813503	1	19501	1	0	next
conjunction	negative	15	Null	hit	F	14601	2	9858339	1	14668	1	0	next
conjunction	negative	1	Null	hit	F	7720	2	9898341	1	7834	1	0	next
conjunction	negative	30	Null	hit	F	15675	2	9931510	1	15834	1	0	next
conjunction	negative	30	Null	hit	F	11941	2	9972680	1	12001	1	0	next
conjunction	negative	30	Null	hit	F	10288	2	10010015	1	10334	1	0	next
conjunction	negative	15	Null	hit	F	7258	2	10045684	1	7334	1	0	next
conjunction	negative	15	Null	hit	F	13152	2	10078353	1	13334	1	0	next
conjunction	negative	15	Null	hit	F	5523	2	10117022	1	5667	1	0	next
conjunction	negative	15	Null	hit	F	7322	2	10148024	1	7500	1	0	next
conjunction	negative	15	Null	hit	F	10015	2	10264532	1	10167	1	0	next
conjunction	negative	15	Null	incorrect	J	8756	2	10300034	1	8834	1	0	next
conjunction	negative	5	Null	hit	F	6590	2	10334203	1	6667	1	0	next
conjunction	positive	5	T_green	hit	J	11866	2	10366205	1	12001	1	0	next
conjunction	positive	1	T_green	hit	J	6214	2	10403541	1	6334	1	0	next
conjunction	positive	1	T_green	hit	J	5263	2	10435209	1	5334	1	0	next
conjunction	positive	30	T_green	incorrect	F	10755	2	10465878	1	10834	1	0	next
conjunction	positive	15	T_green	hit	J	8672	2	10502047	1	8834	1	0	next
conjunction	positive	5	T_green	hit	J	6665	2	10536216	1	6834	1	0	next
conjunction	positive	1	T_green	hit	J	5051	2	10568384	1	5167	1	0	next
conjunction	positive	15	T_green	incorrect	F	12153	2	10598887	1	12334	1	0	next
conjunction	negative	5	Null	hit	F	11604	2	10636556	1	11667	1	0	next
conjunction	positive	15	T_green	hit	J	7084	2	10673558	1	7167	1	0	next
conjunction	positive	15	T_green	hit	J	6740	2	10706060	1	6834	1	0	next
conjunction	negative	30	Null	hit	F	32975	2	10738229	1	33169	1	0	next
conjunction	negative	30	Null	hit	F	28389	2	10796732	1	28502	1	0	next
conjunction	positive	1	T_green	hit	J	5759	2	10850569	1	5834	1	0	next
conjunction	negative	5	Null	hit	F	8346	2	10881738	1	8501	1	0	next
conjunction	positive	1	T_green	hit	J	6993	2	10915573	1	7167	1	0	next
conjunction	negative	5	Null	hit	F	6971	2	10948076	1	7167	1	0	next
conjunction	positive	5	T_green	hit	J	5993	2	10980578	1	6167	1	0	next
conjunction	negative	30	Null	hit	F	28727	2	11012080	1	28835	1	0	next
conjunction	positive	5	T_green	hit	J	8642	2	11066250	1	8834	1	0	next
conjunction	negative	1	Null	hit	F	8554	2	11100419	1	8667	1	0	next
conjunction	negative	15	Null	hit	F	23512	2	11134421	1	23668	1	0	next
conjunction	positive	30	T_green	incorrect	F	28587	2	11183424	1	28669	1	0	next
conjunction	positive	1	T_green	hit	J	5316	2	11237427	1	5500	1	0	next
conjunction	positive	1	T_green	hit	J	6313	2	11268263	1	6500	1	0	next
conjunction	negative	5	Null	hit	F	8238	2	11300098	1	8334	1	0	next
conjunction	negative	1	Null	hit	F	12652	2	11333767	1	12834	1	0	next
conjunction	positive	1	T_green	hit	J	10000	2	11371936	1	10167	1	0	next
conjunction	positive	15	T_green	incorrect	F	8579	2	11407438	1	8667	1	0	next
conjunction	negative	30	Null	hit	F	31859	2	11441441	1	32002	1	0	next
conjunction	positive	5	T_green	hit	J	11486	2	11498778	1	11667	1	0	next
conjunction	positive	1	T_green	hit	J	5681	2	11535780	1	5834	1	0	next
conjunction	negative	1	Null	hit	F	10513	2	11566949	1	10667	1	0	next
conjunction	positive	5	T_green	hit	J	8431	2	11602951	1	8501	1	0	next
conjunction	positive	1	T_green	hit	J	6759	2	11636786	1	6834	1	0	next
conjunction	negative	30	Null	hit	F	25948	2	11668955	1	26002	1	0	next
conjunction	positive	5	T_green	hit	J	12056	2	11720292	1	12167	1	0	next
conjunction	negative	5	Null	hit	F	10232	2	11757794	1	10334	1	0	next
conjunction	positive	5	T_green	hit	J	7045	2	11793463	1	7167	1	0	next
conjunction	positive	30	T_green	hit	J	19184	2	11825965	1	19335	1	0	next
conjunction	positive	5	T_green	hit	J	8433	2	11870635	1	8500	1	0	next
conjunction	negative	30	Null	hit	F	16199	2	11904470	1	16334	1	0	next
conjunction	negative	1	Null	hit	F	10690	2	11946140	1	10834	1	0	next
conjunction	negative	15	Null	hit	F	19484	2	11982309	1	19668	1	0	next
conjunction	positive	30	T_green	hit	J	11285	2	12027311	1	11334	1	0	next
conjunction	positive	5	T_green	hit	J	9014	2	12063980	1	9167	1	0	next
conjunction	negative	1	Null	hit	F	19154	2	12098483	1	19335	1	0	next
conjunction	negative	5	Null	hit	F	11446	2	12143152	1	11501	1	0	next
conjunction	positive	1	T_green	hit	J	27412	2	12179988	1	27502	1	0	next
conjunction	positive	30	T_green	hit	J	6578	2	12232825	1	6667	1	0	next
conjunction	negative	1	Null	hit	F	9134	2	12264827	1	9167	1	0	next
conjunction	positive	15	T_green	hit	J	20390	2	12299329	1	20501	1	0	next
conjunction	negative	1	Null	hit	F	8634	2	12345165	1	8667	1	0	next
conjunction	positive	15	T_green	hit	J	7598	2	12379167	1	7667	1	0	next
conjunction	positive	1	T_green	hit	J	10598	2	12412170	1	10667	1	0	next
conjunction	negative	15	Null	hit	F	18755	2	12448172	1	18835	1	0	next
conjunction	positive	5	T_green	hit	J	5945	2	12492341	1	6000	1	0	next
conjunction	negative	1	Null	hit	F	7091	2	12523677	1	7167	1	0	next
conjunction	positive	5	T_green	hit	J	7870	2	12556179	1	8000	1	0	next
conjunction	positive	30	T_green	hit	J	9255	2	12589514	1	9334	1	0	next
conjunction	positive	5	T_green	hit	J	8668	2	12624183	1	8834	1	0	next
conjunction	positive	5	T_green	hit	J	5221	2	12658352	1	5334	1	0	next
conjunction	negative	15	Null	hit	F	18711	2	12689021	1	18834	1	0	next
conjunction	positive	15	T_green	hit	J	10064	2	12733190	1	10167	1	0	next
conjunction	positive	30	T_green	hit	J	14399	2	12768692	1	14501	1	0	next
conjunction	negative	15	Null	hit	F	10246	2	12808528	1	10334	1	0	next
conjunction	positive	5	T_green	hit	J	5780	2	12844197	1	5834	1	0	next
conjunction	negative	1	Null	hit	F	9010	2	12875366	1	9167	1	0	next
conjunction	negative	30	Null	hit	F	22510	2	12909868	1	22668	1	0	next
conjunction	positive	1	T_green	hit	J	6828	2	12957871	1	7000	1	0	next
conjunction	positive	1	T_green	hit	J	6173	2	12990207	1	6334	1	0	next
conjunction	positive	30	T_green	hit	J	10183	2	13021875	1	10334	1	0	next
conjunction	positive	30	T_green	hit	J	13395	2	13057544	1	13501	1	0	next
conjunction	positive	1	T_green	hit	J	4644	2	13096380	1	4834	1	0	next
conjunction	negative	15	Null	hit	F	13353	2	13126549	1	13501	1	0	next
conjunction	positive	5	T_green	hit	J	7160	2	13165385	1	7334	1	0	next
conjunction	negative	15	Null	hit	F	18334	2	13198053	1	18501	1	0	next
conjunction	negative	30	Null	hit	F	11455	2	13241889	1	11501	1	0	next
conjunction	positive	30	T_green	hit	J	12540	2	13278725	1	12667	1	0	next
conjunction	negative	5	Null	hit	F	7980	2	13316728	1	8167	1	0	next
conjunction	positive	1	T_green	hit	J	5839	2	13350230	1	6000	1	0	next
conjunction	positive	30	T_green	hit	J	14664	2	13381565	1	14834	1	0	next
conjunction	positive	30	T_green	hit	J	8738	2	13421734	1	8834	1	0	next
conjunction	positive	15	T_green	hit	J	7686	2	13455903	1	7834	1	0	next
conjunction	negative	1	Null	hit	F	8121	2	13489072	1	8167	1	0	next
conjunction	negative	1	Null	hit	F	7421	2	13522574	1	7500	1	0	next
conjunction	negative	1	Null	hit	F	6104	2	13555410	1	6167	1	0	next
conjunction	negative	30	Null	hit	F	20846	2	13586912	1	21001	1	0	next
conjunction	negative	1	Null	hit	F	7308	2	13633248	1	7500	1	0	next
conjunction	negative	15	Null	hit	F	12071	2	13666083	1	12167	1	0	next
conjunction	positive	30	T_green	hit	J	13289	2	13703586	1	13334	1	0	next
conjunction	negative	15	Null	hit	F	12067	2	13742255	1	12167	1	0	next
conjunction	negative	30	Null	hit	F	8159	2	13779757	1	8334	1	0	next
conjunction	positive	15	T_green	incorrect	F	8095	2	13813426	1	8167	1	0	next
conjunction	negative	15	Null	hit	F	10754	2	13846928	1	10834	1	0	next
conjunction	negative	15	Null	hit	F	11543	2	13883097	1	11667	1	0	next
conjunction	positive	15	T_green	hit	J	9103	2	13920100	1	9167	1	0	next
conjunction	negative	1	Null	hit	F	12681	2	13954602	1	12834	1	0	next
conjunction	positive	15	T_green	hit	J	10675	2	13992771	1	10834	1	0	next
conjunction	positive	30	T_green	hit	J	13383	2	14028940	1	13501	1	0	next
conjunction	positive	15	T_green	hit	J	6392	2	14067776	1	6500	1	0	next
conjunction	negative	30	Null	hit	F	21435	2	14099611	1	21501	1	0	next
conjunction	negative	1	Null	hit	F	8038	2	14146447	1	8167	1	0	next
conjunction	positive	30	T_green	hit	J	9098	2	14179950	1	9167	1	0	next
conjunction	negative	30	Null	hit	F	25959	2	14214452	1	26002	1	0	next
conjunction	negative	30	Null	incorrect	J	17023	2	14265789	1	17168	1	0	next
conjunction	negative	1	Null	hit	F	9723	2	14308291	1	9834	1	0	next
conjunction	negative	15	Null	hit	F	7032	2	14343460	1	7167	1	0	next
conjunction	negative	5	Null	hit	F	10851	2	14375962	1	11001	1	0	next
conjunction	positive	30	T_green	incorrect	F	11959	2	14412298	1	12001	1	0	next
conjunction	positive	15	T_green	hit	J	8540	2	14449634	1	8667	1	0	next
conjunction	positive	15	T_green	hit	J	11824	2	14483636	1	12001	1	0	next
conjunction	positive	15	T_green	hit	J	15287	2	14520971	1	15334	1	0	next
conjunction	negative	30	Null	hit	F	32220	2	14561641	1	32335	1	0	next
conjunction	negative	15	Null	hit	F	20311	2	14619311	1	20501	1	0	next
conjunction	negative	15	Null	hit	F	9032	2	14665147	1	9167	1	0	next
conjunction	negative	30	Null	hit	F	13893	2	14699650	1	14001	1	0	next
conjunction	negative	5	Null	hit	F	7037	2	14738986	1	7167	1	0	next
conjunction	negative	5	Null	hit	F	6378	2	14771488	1	6500	1	0	next
conjunction	negative	30	Null	hit	F	16460	2	14803323	1	16501	1	0	next
conjunction	negative	5	Null	hit	F	6948	2	14845159	1	7000	1	0	next
conjunction	negative	5	Null	hit	F	6134	2	14877494	1	6334	1	0	next
conjunction	negative	5	Null	hit	F	6626	2	14909163	1	6667	1	0	next
conjunction	negative	5	Null	hit	F	6305	2	14941165	1	6500	1	0	next
conjunction	negative	5	Null	incorrect	J	8071	2	14973001	1	8167	1	0	next
disjunction	negative	5	Null	hit	F	20661	2	15098009	1	20835	1	0	next
disjunction	positive	15	S_brown	hit	J	9218	2	15144178	1	9334	1	0	next
disjunction	positive	5	S_brown	hit	J	7186	2	15178847	1	7334	1	0	next
disjunction	positive	30	S_brown	hit	J	7478	2	15211516	1	7667	1	0	next
disjunction	negative	15	Null	hit	F	10159	2	15244518	1	10334	1	0	next
disjunction	positive	1	T_blue	hit	J	7930	2	15280187	1	8001	1	0	next
disjunction	negative	15	Null	hit	F	7557	2	15313522	1	7667	1	0	next
disjunction	positive	1	S_brown	hit	J	10878	2	15346525	1	11001	1	0	next
disjunction	negative	1	Null	hit	F	15979	2	15382860	1	16168	1	0	next
disjunction	negative	1	Null	hit	F	9036	2	15424363	1	9167	1	0	next
disjunction	negative	5	Null	hit	F	8619	2	15458865	1	8667	1	0	next
disjunction	positive	5	S_green	hit	J	6776	2	15492867	1	6834	1	0	next
disjunction	negative	30	Null	hit	F	13968	2	15525036	1	14001	1	0	next
disjunction	positive	15	X_blue	hit	J	6150	2	15564372	1	6334	1	0	next
disjunction	positive	15	S_green	hit	J	7126	2	15596040	1	7167	1	0	next
disjunction	positive	30	S_brown	hit	J	22625	2	15628543	1	22668	1	0	next
disjunction	negative	30	Null	hit	F	6942	2	15676546	1	7000	1	0	next
disjunction	positive	15	X_blue	hit	J	5649	2	15708881	1	5834	1	0	next
disjunction	positive	15	S_green	hit	J	5678	2	15740050	1	5834	1	0	next
disjunction	negative	5	Null	hit	F	7469	2	15771218	1	7500	1	0	next
disjunction	negative	30	Null	hit	F	7595	2	15804054	1	7667	1	0	next
disjunction	positive	30	T_blue	hit	J	5155	2	15837056	1	5334	1	0	next
disjunction	negative	1	Null	hit	F	7928	2	15867725	1	8001	1	0	next
disjunction	negative	1	Null	hit	F	6593	2	15901060	1	6667	1	0	next
disjunction	positive	1	S_brown	hit	J	16991	2	15933062	1	17168	1	0	next
disjunction	negative	15	Null	hit	F	7130	2	15975565	1	7167	1	0	next
disjunction	negative	30	Null	hit	F	37828	2	16008067	1	38002	1	0	next
disjunction	positive	1	X_blue	hit	J	6340	2	16071404	1	6500	1	0	next
disjunction	positive	30	S_brown	hit	J	10178	2	16103240	1	10334	1	0	next
disjunction	negative	15	Null	hit	F	11467	2	16138909	1	11667	1	0	next
disjunction	positive	15	S_green	hit	J	8231	2	16175911	1	8334	1	0	next
disjunction	negative	5	Null	hit	F	6562	2	16209580	1	6667	1	0	next
disjunction	positive	1	S_brown	hit	J	6560	2	16241582	1	6667	1	0	next
disjunction	negative	5	Null	hit	F	6876	2	16273584	1	7000	1	0	next
disjunction	positive	30	T_blue	hit	J	6863	2	16305919	1	7000	1	0	next
disjunction	positive	15	T_blue	hit	J	8610	2	16338255	1	8667	1	0	next
disjunction	negative	30	Null	hit	F	13009	2	16372257	1	13168	1	0	next
disjunction	negative	30	Null	hit	F	10345	2	16410759	1	10501	1	0	next
disjunction	negative	1	Null	incorrect	J	6833	2	16446595	1	7000	1	0	next
disjunction	negative	5	Null	hit	F	6815	2	16478931	1	7000	1	0	next
disjunction	positive	5	S_brown	hit	J	23124	2	16511266	1	23168	1	0	next
disjunction	negative	30	Null	hit	F	9019	2	16559769	1	9167	1	0	next
disjunction	negative	1	Null	hit	F	8599	2	16594271	1	8667	1	0	next
disjunction	positive	5	S_green	hit	J	6595	2	16628273	1	6667	1	0	next
disjunction	positive	30	S_green	hit	J	7077	2	16660276	1	7167	1	0	next
disjunction	positive	5	T_blue	incorrect	F	7219	2	16692778	1	7334	1	0	next
disjunction	negative	15	Null	incorrect	J	7027	2	16725446	1	7167	1	0	next
disjunction	negative	5	Null	hit	F	8445	2	16757948	1	8501	1	0	next
disjunction	positive	15	S_brown	hit	J	44373	2	16791784	1	44503	1	0	next
disjunction	positive	5	S_green	hit	J	15660	2	16861622	1	15834	1	0	next
disjunction	positive	15	T_blue	hit	J	12088	2	16902791	1	12167	1	0	next
disjunction	negative	1	Null	hit	F	8667	2	16940293	1	8834	1	0	next
disjunction	positive	30	T_blue	incorrect	F	6017	2	16974462	1	6167	1	0	next
disjunction	negative	1	Null	hit	F	7642	2	17005964	1	7834	1	0	next
disjunction	negative	1	Null	hit	F	17987	2	17039133	1	18168	1	0	next
disjunction	negative	5	Null	hit	F	6968	2	17082636	1	7000	1	0	next
disjunction	positive	15	S_brown	hit	J	13030	2	17114971	1	13168	1	0	next
disjunction	positive	5	T_blue	hit	J	12613	2	17153474	1	12667	1	0	next
disjunction	negative	5	Null	hit	F	10771	2	17191476	1	10834	1	0	next
disjunction	positive	30	X_blue	hit	J	6762	2	17227645	1	6834	1	0	next
disjunction	negative	1	Null	hit	F	11391	2	17259814	1	11501	1	0	next
disjunction	positive	1	S_green	hit	J	10880	2	17296650	1	11001	1	0	next
disjunction	positive	5	T_blue	hit	J	19827	2	17332985	1	20001	1	0	next
disjunction	positive	15	S_brown	hit	J	16574	2	17378322	1	16668	1	0	next
disjunction	positive	5	T_blue	hit	J	6405	2	17420324	1	6500	1	0	next
disjunction	positive	1	S_green	hit	J	7372	2	17452160	1	7500	1	0	next
disjunction	positive	15	S_green	hit	J	11658	2	17484995	1	11834	1	0	next
disjunction	negative	5	Null	hit	F	10491	2	17522164	1	10667	1	0	next
disjunction	positive	30	S_green	incorrect	F	7930	2	17558166	1	8001	1	0	next
disjunction	positive	30	T_blue	hit	J	7713	2	17591502	1	7834	1	0	next
disjunction	positive	15	S_green	hit	J	9268	2	17624671	1	9334	1	0	next
disjunction	positive	15	X_blue	hit	J	10117	2	17659340	1	10167	1	0	next
disjunction	negative	5	Null	hit	F	7740	2	17694842	1	7834	1	0	next
disjunction	negative	30	Null	hit	F	9130	2	17728011	1	9167	1	0	next
disjunction	positive	5	X_blue	hit	J	6949	2	17762513	1	7000	1	0	next
disjunction	positive	30	S_green	hit	J	10133	2	17794848	1	10167	1	0	next
disjunction	negative	30	Null	hit	F	9189	2	17830351	1	9334	1	0	next
disjunction	negative	1	Null	hit	F	10043	2	17865020	1	10167	1	0	next
disjunction	positive	30	X_blue	hit	J	7185	2	17900522	1	7334	1	0	next
disjunction	negative	30	Null	hit	F	13556	2	17933190	1	13668	1	0	next
disjunction	positive	1	X_blue	hit	J	6234	2	17972193	1	6334	1	0	next
disjunction	negative	1	Null	hit	F	7042	2	18003862	1	7167	1	0	next
disjunction	positive	30	S_brown	hit	J	12946	2	18036364	1	13001	1	0	next
disjunction	positive	15	X_blue	hit	J	6130	2	18074700	1	6167	1	0	next
disjunction	negative	1	Null	hit	F	10309	2	18106202	1	10501	1	0	next
disjunction	positive	15	S_green	hit	J	8234	2	18142037	1	8334	1	0	next
disjunction	negative	1	Null	incorrect	J	7042	2	18175706	1	7167	1	0	next
disjunction	positive	1	T_blue	hit	J	3182	2	18208208	1	3334	1	0	next
disjunction	negative	15	Null	hit	F	7798	2	18236877	1	8001	1	0	next
disjunction	negative	5	Null	hit	F	12539	2	18270212	1	12668	1	0	next
disjunction	negative	1	Null	hit	F	7981	2	18308215	1	8167	1	0	next
disjunction	positive	30	S_brown	hit	J	8239	2	18341717	1	8334	1	0	next
disjunction	positive	1	S_green	hit	J	5291	2	18375386	1	5334	1	0	next
disjunction	negative	30	Null	hit	F	15743	2	18406054	1	15834	1	0	next
disjunction	negative	5	Null	hit	F	37938	2	18447223	1	38002	1	0	next
disjunction	negative	15	Null	hit	F	12677	2	18510561	1	12834	1	0	next
disjunction	positive	1	S_brown	hit	J	5548	2	18548730	1	5667	1	0	next
disjunction	negative	1	Null	hit	F	23348	2	18579732	1	23502	1	0	next
disjunction	positive	1	S_green	hit	J	5712	2	18628568	1	5834	1	0	next
disjunction	negative	15	Null	hit	F	13749	2	18659737	1	13834	1	0	next
disjunction	positive	1	X_blue	hit	J	7219	2	18698906	1	7334	1	0	next
disjunction	positive	1	X_blue	incorrect	F	8952	2	18731575	1	9001	1	0	next
disjunction	negative	30	Null	hit	F	20854	2	18765911	1	21001	1	0	next
disjunction	negative	15	Null	hit	F	7317	2	18812247	1	7500	1	0	next
disjunction	negative	30	Null	hit	F	5364	2	18845082	1	5500	1	0	next
disjunction	positive	1	X_blue	hit	J	8132	2	18875918	1	8167	1	0	next
disjunction	negative	30	Null	hit	F	7430	2	18909420	1	7500	1	0	next
disjunction	negative	15	Null	hit	F	8192	2	18942255	1	8334	1	0	next
disjunction	positive	5	T_blue	hit	J	6365	2	18975924	1	6500	1	0	next
disjunction	negative	30	Null	hit	F	7492	2	19007759	1	7667	1	0	next
disjunction	positive	1	T_blue	hit	J	5530	2	19040762	1	5667	1	0	next
disjunction	positive	5	T_blue	hit	J	6211	2	19071764	1	6334	1	0	next
disjunction	positive	30	T_blue	hit	J	5903	2	19103432	1	6000	1	0	next
disjunction	negative	30	Null	hit	F	6885	2	19134768	1	7000	1	0	next
disjunction	negative	15	Null	hit	F	6232	2	19167103	1	6334	1	0	next
disjunction	negative	15	Null	hit	F	5766	2	19198772	1	5834	1	0	next
disjunction	negative	5	Null	hit	F	6596	2	19229940	1	6667	1	0	next
disjunction	negative	15	Null	hit	F	6277	2	19261942	1	6334	1	0	next
disjunction	positive	5	X_blue	hit	J	5169	2	19293611	1	5334	1	0	next
disjunction	negative	15	Null	hit	F	7622	2	19324280	1	7667	1	0	next
disjunction	negative	5	Null	hit	F	6459	2	19357282	1	6500	1	0	next
disjunction	positive	5	X_blue	hit	J	5821	2	19389117	1	6000	1	0	next
disjunction	negative	15	Null	hit	F	6330	2	19420453	1	6500	1	0	next
disjunction	positive	5	X_blue	hit	J	5215	2	19452288	1	5334	1	0	next
disjunction	positive	5	S_brown	hit	J	11508	2	19482957	1	11667	1	0	next
disjunction	positive	30	X_blue	hit	J	6344	2	19519959	1	6500	1	0	next
disjunction	negative	5	Null	hit	F	7469	2	19551794	1	7500	1	0	next
disjunction	negative	15	Null	hit	F	15278	2	19584630	1	15334	1	0	next
disjunction	negative	5	Null	hit	F	15160	2	20051160	1	15334	1	0	next
disjunction	positive	5	T_blue	hit	J	5529	2	20091829	1	5667	1	0	next
disjunction	negative	15	Null	hit	F	7489	2	20122831	1	7667	1	0	next
disjunction	positive	30	T_blue	hit	J	6808	2	20155833	1	7001	1	0	next
disjunction	negative	1	Null	hit	F	7115	2	20188169	1	7167	1	0	next
disjunction	positive	1	T_blue	hit	J	5170	2	20220671	1	5334	1	0	next
disjunction	negative	30	Null	hit	F	6344	2	20251339	1	6500	1	0	next
disjunction	negative	15	Null	incorrect	J	7310	2	20283175	1	7500	1	0	next
disjunction	positive	15	T_blue	hit	J	5835	2	20316010	1	6000	1	0	next
disjunction	positive	5	S_brown	hit	J	9218	2	20347346	1	9334	1	0	next
disjunction	positive	5	S_brown	hit	J	8154	2	20382014	1	8334	1	0	next
disjunction	positive	1	S_brown	hit	J	5845	2	20415683	1	6000	1	0	next
disjunction	negative	15	Null	hit	F	9709	2	20447019	1	9834	1	0	next
disjunction	positive	15	S_green	hit	J	7180	2	20482187	1	7334	1	0	next
disjunction	negative	15	Null	hit	F	10033	2	20514856	1	10167	1	0	next
disjunction	positive	5	X_blue	hit	J	7013	2	20550358	1	7167	1	0	next
disjunction	negative	15	Null	hit	F	8589	2	20582861	1	8667	1	0	next
disjunction	negative	15	Null	hit	F	7869	2	20616863	1	8001	1	0	next
disjunction	positive	5	T_blue	hit	J	6216	2	20650198	1	6334	1	0	next
disjunction	negative	1	Null	hit	F	11509	2	20681867	1	11667	1	0	next
disjunction	negative	15	Null	hit	F	7627	2	20718869	1	7667	1	0	next
disjunction	positive	15	T_blue	hit	J	8703	2	20751871	1	8834	1	0	next
disjunction	positive	5	T_blue	hit	J	5415	2	20786040	1	5500	1	0	next
disjunction	positive	5	S_green	incorrect	F	11223	2	20816876	1	11334	1	0	next
disjunction	negative	30	Null	hit	F	23996	2	20853545	1	24168	1	0	next
disjunction	negative	1	Null	hit	F	7610	2	20903048	1	7667	1	0	next
disjunction	positive	5	X_blue	hit	J	6931	2	20936050	1	7000	1	0	next
disjunction	positive	30	X_blue	hit	J	6277	2	20968385	1	6334	1	0	next
disjunction	positive	30	T_blue	hit	J	5970	2	21000054	1	6167	1	0	next
disjunction	positive	15	S_brown	hit	J	10306	2	21031556	1	10334	1	0	next
disjunction	negative	30	Null	hit	F	15760	2	21067225	1	15834	1	0	next
disjunction	positive	1	S_brown	hit	J	6752	2	21108394	1	6834	1	0	next
disjunction	negative	15	Null	hit	F	7065	2	21140563	1	7167	1	0	next
disjunction	positive	15	T_blue	hit	J	7200	2	21173065	1	7334	1	0	next
disjunction	positive	1	S_green	hit	J	8615	2	21205734	1	8667	1	0	next
disjunction	positive	1	T_blue	hit	J	5331	2	21239736	1	5500	1	0	next
disjunction	negative	1	Null	hit	F	10016	2	21270571	1	10167	1	0	next
disjunction	positive	15	S_green	hit	J	6835	2	21306074	1	7000	1	0	next
disjunction	negative	30	Null	hit	F	7303	2	21338409	1	7334	1	0	next
disjunction	negative	30	Null	hit	F	8715	2	21371078	1	8834	1	0	next
disjunction	positive	5	T_blue	hit	J	6226	2	21405247	1	6334	1	0	next
disjunction	positive	5	T_blue	hit	J	8639	2	21436915	1	8834	1	0	next
disjunction	positive	1	X_blue	hit	J	5672	2	21471084	1	5834	1	0	next
disjunction	positive	5	X_blue	hit	J	6661	2	21502253	1	6834	1	0	next
disjunction	negative	5	Null	hit	F	14813	2	21534422	1	15001	1	0	next
disjunction	negative	15	Null	hit	F	12397	2	21574758	1	12501	1	0	next
disjunction	positive	5	S_green	hit	J	7044	2	21612593	1	7167	1	0	next
disjunction	negative	15	Null	hit	F	8782	2	21645095	1	8834	1	0	next
disjunction	positive	5	X_blue	hit	J	5497	2	21679264	1	5667	1	0	next
disjunction	negative	1	Null	hit	F	7133	2	21710266	1	7167	1	0	next
disjunction	positive	5	S_green	hit	J	5674	2	21742768	1	5834	1	0	next
disjunction	negative	15	Null	hit	F	8585	2	21773937	1	8667	1	0	next
disjunction	negative	15	Null	hit	F	8665	2	21807939	1	8834	1	0	next
disjunction	negative	15	Null	hit	F	8577	2	21842108	1	8667	1	0	next
disjunction	positive	5	S_brown	hit	J	6576	2	21876110	1	6667	1	0	next
disjunction	negative	15	Null	hit	F	6896	2	21908112	1	7000	1	0	next
disjunction	positive	5	X_blue	hit	J	6079	2	21940448	1	6167	1	0	next
disjunction	negative	1	Null	incorrect	J	13458	2	21971950	1	13501	1	0	next
disjunction	positive	30	S_brown	hit	J	11423	2	22010786	1	11501	1	0	next
disjunction	positive	15	X_blue	hit	J	7707	2	22047621	1	7834	1	0	next
disjunction	positive	1	T_blue	hit	J	4621	2	22080790	1	4667	1	0	next
disjunction	positive	15	S_green	hit	J	10779	2	22110792	1	10834	1	0	next
disjunction	positive	1	X_blue	hit	J	4849	2	22146961	1	5000	1	0	next
disjunction	positive	30	S_brown	hit	J	7318	2	22177296	1	7500	1	0	next
disjunction	positive	30	T_blue	hit	J	4885	2	22210132	1	5000	1	0	next
disjunction	negative	30	Null	hit	F	23511	2	22240467	1	23668	1	0	next
disjunction	negative	15	Null	hit	F	7943	2	22289470	1	8000	1	0	next
disjunction	negative	15	Null	hit	F	6773	2	22322806	1	6834	1	0	next
disjunction	negative	5	Null	incorrect	J	5163	2	22354974	1	5334	1	0	next
disjunction	positive	15	X_blue	hit	J	4735	2	22385643	1	4834	1	0	next
disjunction	positive	30	X_blue	hit	J	5448	2	22415812	1	5500	1	0	next
disjunction	negative	30	Null	hit	F	7738	2	22446647	1	7834	1	0	next
disjunction	negative	1	Null	hit	F	8483	2	22479816	1	8667	1	0	next
disjunction	positive	15	T_blue	hit	J	5682	2	22513818	1	5834	1	0	next
disjunction	positive	15	T_blue	hit	J	6194	2	22544987	1	6334	1	0	next
disjunction	negative	5	Null	incorrect	J	6367	2	22576655	1	6500	1	0	next
disjunction	positive	15	S_green	hit	J	7012	2	22608491	1	7167	1	0	next
disjunction	positive	15	S_brown	hit	J	10190	2	22640993	1	10334	1	0	next
disjunction	positive	15	S_green	incorrect	F	7802	2	22676662	1	7834	1	0	next
disjunction	positive	30	S_green	hit	J	8237	2	22709830	1	8334	1	0	next
disjunction	negative	30	Null	hit	F	18569	2	22743499	1	18668	1	0	next
disjunction	negative	30	Null	hit	F	15044	2	22787502	1	15168	1	0	next
disjunction	positive	15	S_brown	hit	J	6541	2	22828005	1	6667	1	0	next
disjunction	negative	30	Null	hit	F	12790	2	22860007	1	12834	1	0	next
disjunction	positive	1	S_green	hit	J	8054	2	22898176	1	8167	1	0	next
disjunction	positive	15	S_brown	hit	J	8476	2	22931678	1	8667	1	0	next
disjunction	positive	30	S_brown	hit	J	7269	2	22965680	1	7334	1	0	next
disjunction	negative	30	Null	hit	F	16202	2	22998349	1	16334	1	0	next
disjunction	positive	1	X_blue	hit	J	7817	2	23040018	1	8000	1	0	next
disjunction	positive	30	X_blue	hit	J	7604	2	23073354	1	7667	1	0	next
disjunction	positive	1	X_blue	hit	J	6121	2	23106356	1	6167	1	0	next
disjunction	negative	5	Null	hit	F	8698	2	23137858	1	8834	1	0	next
disjunction	positive	30	S_brown	hit	J	9728	2	23172027	1	9834	1	0	next
disjunction	positive	30	S_brown	hit	J	6403	2	23207196	1	6500	1	0	next
disjunction	negative	30	Null	hit	F	7685	2	23239031	1	7834	1	0	next
disjunction	negative	30	Null	hit	F	7478	2	23272200	1	7667	1	0	next
disjunction	positive	30	X_blue	hit	J	5841	2	23305202	1	6000	1	0	next
disjunction	negative	30	Null	hit	F	8585	2	23336537	1	8667	1	0	next
disjunction	positive	1	S_green	hit	J	21141	2	23370540	1	21335	1	0	next
disjunction	positive	30	S_brown	hit	J	52556	2	23417209	1	52670	1	0	next
disjunction	negative	1	Null	hit	F	26872	2	23495214	1	27002	1	0	next
disjunction	positive	1	S_green	hit	J	8778	2	23547551	1	8834	1	0	next
disjunction	positive	30	S_green	hit	J	6774	2	23581720	1	6834	1	0	next
disjunction	negative	1	Null	hit	F	20042	2	23613888	1	20168	1	0	next
disjunction	negative	30	Null	hit	F	7980	2	23659391	1	8167	1	0	next
disjunction	negative	30	Null	hit	F	10798	2	23692894	1	11001	1	0	next
disjunction	negative	1	Null	hit	F	7904	2	23729229	1	8000	1	0	next
disjunction	negative	5	Null	hit	F	5929	2	23762565	1	6000	1	0	next
disjunction	positive	30	S_green	hit	J	6591	2	23793900	1	6667	1	0	next
disjunction	negative	1	Null	hit	F	7235	2	23825902	1	7334	1	0	next
disjunction	positive	1	X_blue	hit	J	7683	2	23858571	1	7834	1	0	next
disjunction	positive	1	S_green	hit	J	5074	2	23891740	1	5167	1	0	next
disjunction	negative	1	Null	hit	F	19533	2	23922242	1	19668	1	0	next
disjunction	negative	5	Null	hit	F	8771	2	23967244	1	8834	1	0	next
disjunction	positive	1	S_brown	hit	J	4364	2	24001413	1	4500	1	0	next
disjunction	negative	1	Null	hit	F	9572	2	24031249	1	9667	1	0	next
disjunction	negative	1	Null	hit	F	23048	2	24066251	1	23168	1	0	next
disjunction	negative	1	Null	hit	F	8149	2	24114754	1	8334	1	0	next
disjunction	negative	1	Null	hit	F	5841	2	24148423	1	6000	1	0	next
disjunction	negative	5	Null	hit	F	8425	2	24179758	1	8500	1	0	next
disjunction	negative	5	Null	hit	F	8509	2	24213594	1	8667	1	0	next
disjunction	negative	5	Null	hit	F	16910	2	24247596	1	17001	1	0	next
disjunction	negative	5	Null	hit	F	7214	2	24289932	1	7334	1	0	next
disjunction	negative	5	Null	hit	F	5747	2	24322601	1	5834	1	0	next
disjunction	negative	5	Null	hit	F	6580	2	24353769	1	6667	1	0	next
disjunction	negative	5	Null	hit	F	6097	2	24385771	1	6167	1	0	next
disjunction	negative	5	Null	hit	F	6118	2	24417273	1	6167	1	0	next
disjunction	negative	5	Null	hit	F	6137	2	24448775	1	6334	1	0	next
conjunction	positive	15	T_green	incorrect	F	7008	2	24506946	1	7167	1	0	next
conjunction	negative	1	Null	hit	F	8104	2	24539448	1	8167	1	0	next
conjunction	positive	30	T_green	incorrect	F	17647	2	24572950	1	17834	1	0	next
conjunction	positive	15	T_green	hit	J	15436	2	24616120	1	15501	1	0	next
conjunction	positive	15	T_green	hit	J	17961	2	24656955	1	18168	1	0	next
conjunction	positive	1	T_green	hit	J	5017	2	24700458	1	5167	1	0	next
conjunction	negative	5	Null	hit	F	9237	2	24730960	1	9334	1	0	next
conjunction	positive	30	T_green	hit	J	12813	2	24765629	1	13001	1	0	next
conjunction	negative	15	Null	hit	F	17354	2	24803965	1	17501	1	0	next
conjunction	negative	5	Null	hit	F	12600	2	24846801	1	12667	1	0	next
conjunction	negative	5	Null	hit	F	24358	2	24884803	1	24501	1	0	next
conjunction	positive	15	T_green	hit	J	6359	2	24934640	1	6500	1	0	next
conjunction	positive	15	T_green	hit	J	7486	2	24966475	1	7667	1	0	next
conjunction	positive	15	T_green	hit	J	7766	2	24999477	1	7834	1	0	next
conjunction	positive	15	T_green	hit	J	9159	2	25032646	1	9334	1	0	next
conjunction	positive	15	T_green	hit	J	5048	2	25067315	1	5167	1	0	next
conjunction	negative	30	Null	hit	F	20791	2	25097817	1	20835	1	0	next
conjunction	positive	5	T_green	hit	J	4859	2	25143987	1	5000	1	0	next
conjunction	positive	5	T_green	hit	J	5248	2	25174322	1	5334	1	0	next
conjunction	positive	30	T_green	hit	J	19380	2	25204991	1	19501	1	0	next
conjunction	negative	5	Null	hit	F	9107	2	25249827	1	9167	1	0	next
conjunction	negative	30	Null	hit	F	19721	2	25284329	1	19835	1	0	next
conjunction	negative	30	Null	hit	F	17594	2	25329499	1	17668	1	0	next
conjunction	positive	15	T_green	incorrect	F	8833	2	25372501	1	9000	1	0	next
conjunction	positive	30	T_green	hit	J	9379	2	25406837	1	9501	1	0	next
conjunction	negative	1	Null	hit	F	7984	2	25441672	1	8167	1	0	next
conjunction	negative	30	Null	hit	F	28563	2	25475175	1	28669	1	0	next
conjunction	positive	15	T_green	hit	J	6558	2	25529178	1	6667	1	0	next
conjunction	negative	5	Null	hit	F	7839	2	25561180	1	8001	1	0	next
conjunction	positive	15	T_green	hit	J	21384	2	25594516	1	21501	1	0	next
conjunction	positive	1	T_green	hit	J	6229	2	25641352	1	6334	1	0	next
conjunction	positive	30	T_green	hit	J	16477	2	25673021	1	16668	1	0	next
conjunction	negative	15	Null	hit	F	16237	2	25715023	1	16334	1	0	next
conjunction	positive	15	T_green	hit	J	9295	2	25756693	1	9334	1	0	next
conjunction	negative	1	Null	hit	F	24701	2	25791362	1	24835	1	0	next
conjunction	positive	5	T_green	hit	J	10691	2	25841531	1	10834	1	0	next
conjunction	negative	15	Null	hit	F	13403	2	25877700	1	13501	1	0	next
conjunction	positive	1	T_green	hit	J	5453	2	25916536	1	5500	1	0	next
conjunction	negative	15	Null	hit	F	15258	2	25947372	1	15334	1	0	next
conjunction	negative	5	Null	hit	F	7550	2	25988041	1	7667	1	0	next
conjunction	positive	1	T_green	hit	J	5750	2	26021043	1	5834	1	0	next
conjunction	negative	1	Null	hit	F	6258	2	26052212	1	6334	1	0	next
conjunction	positive	5	T_green	hit	J	5310	2	26083880	1	5500	1	0	next
conjunction	negative	15	Null	hit	F	19598	2	26114716	1	19668	1	0	next
conjunction	positive	5	T_green	hit	J	6915	2	26159719	1	7000	1	0	next
conjunction	negative	30	Null	hit	F	15859	2	26192054	1	16001	1	0	next
conjunction	positive	15	T_green	hit	J	7007	2	26233390	1	7167	1	0	next
conjunction	positive	5	T_green	hit	J	6505	2	26265892	1	6667	1	0	next
conjunction	positive	5	T_green	hit	J	7145	2	26297894	1	7334	1	0	next
conjunction	negative	1	Null	hit	F	10316	2	26330563	1	10501	1	0	next
conjunction	negative	15	Null	hit	F	22482	2	26366399	1	22668	1	0	next
conjunction	negative	15	Null	hit	F	14320	2	26414402	1	14501	1	0	next
conjunction	negative	15	Null	hit	F	9043	2	26454237	1	9167	1	0	next
conjunction	positive	5	T_green	hit	J	5740	2	26488740	1	5834	1	0	next
conjunction	positive	1	T_green	hit	J	7532	2	26519908	1	7667	1	0	next
conjunction	negative	15	Null	hit	F	8135	2	26552910	1	8334	1	0	next
conjunction	negative	15	Null	hit	F	12065	2	26586579	1	12167	1	0	next
conjunction	positive	30	T_green	hit	J	13607	2	26624082	1	13668	1	0	next
conjunction	positive	1	T_green	hit	J	8519	2	26663084	1	8667	1	0	next
conjunction	positive	1	T_green	hit	J	4920	2	26697086	1	5000	1	0	next
conjunction	positive	15	T_green	hit	J	11704	2	26727422	1	11834	1	0	next
conjunction	negative	5	Null	hit	F	19177	2	26764591	1	19335	1	0	next
conjunction	negative	15	Null	hit	F	18671	2	26809260	1	18834	1	0	next
conjunction	positive	1	T_green	incorrect	F	8264	2	26853430	1	8334	1	0	next
conjunction	positive	30	T_green	hit	J	13154	2	26887099	1	13334	1	0	next
conjunction	positive	30	T_green	hit	J	15128	2	26925768	1	15168	1	0	next
conjunction	positive	15	T_green	incorrect	F	28863	2	26966270	1	29002	1	0	next
conjunction	positive	1	T_green	hit	J	10047	2	27020607	1	10167	1	0	next
conjunction	positive	5	T_green	hit	J	7668	2	27056109	1	7834	1	0	next
conjunction	negative	1	Null	hit	F	8261	2	27089278	1	8334	1	0	next
conjunction	positive	1	T_green	hit	J	5953	2	27122947	1	6000	1	0	next
conjunction	positive	5	T_green	hit	J	12056	2	27154282	1	12167	1	0	next
conjunction	negative	5	Null	hit	F	7677	2	27191785	1	7834	1	0	next
conjunction	positive	5	T_green	hit	J	7948	2	27224954	1	8001	1	0	next
conjunction	positive	30	T_green	hit	J	8852	2	27258289	1	9001	1	0	next
conjunction	positive	30	T_green	hit	J	22515	2	27292625	1	22668	1	0	next
conjunction	positive	15	T_green	hit	J	8113	2	27340628	1	8167	1	0	next
conjunction	positive	30	T_green	hit	J	10938	2	27374130	1	11001	1	0	next
conjunction	negative	1	Null	hit	F	6600	2	27410465	1	6667	1	0	next
conjunction	positive	1	T_green	hit	J	19400	2	27442468	1	19501	1	0	next
conjunction	negative	5	Null	hit	F	8641	2	27487304	1	8834	1	0	next
conjunction	positive	30	T_green	hit	J	6476	2	27521473	1	6667	1	0	next
conjunction	negative	1	Null	hit	F	7115	2	27553475	1	7167	1	0	next
conjunction	positive	1	T_green	hit	J	5651	2	27585977	1	5834	1	0	next
conjunction	positive	30	T_green	hit	J	9523	2	27617145	1	9667	1	0	next
conjunction	negative	5	Null	hit	F	8767	2	27652148	1	8834	1	0	next
conjunction	negative	5	Null	hit	F	7078	2	27686317	1	7167	1	0	next
conjunction	positive	5	T_green	hit	J	8494	2	27718819	1	8667	1	0	next
conjunction	positive	1	T_green	hit	J	6334	2	27752821	1	6500	1	0	next
conjunction	positive	1	T_green	hit	J	6017	2	27784656	1	6167	1	0	next
conjunction	negative	5	Null	hit	F	16596	2	27816158	1	16668	1	0	next
conjunction	positive	30	T_green	hit	J	14916	2	27858161	1	15001	1	0	next
conjunction	negative	30	Null	hit	F	27544	2	27898497	1	27668	1	0	next
conjunction	negative	1	Null	hit	F	6696	2	27951500	1	6834	1	0	next
conjunction	positive	1	T_green	hit	J	6529	2	27983669	1	6667	1	0	next
conjunction	positive	5	T_green	hit	J	9252	2	28015671	1	9334	1	0	next
conjunction	positive	1	T_green	hit	J	5783	2	28050340	1	5834	1	0	next
conjunction	negative	1	Null	hit	F	9013	2	28081509	1	9167	1	0	next
conjunction	positive	30	T_green	hit	J	9071	2	28116011	1	9167	1	0	next
conjunction	negative	30	Null	hit	F	14731	2	28150513	1	14834	1	0	next
conjunction	negative	15	Null	hit	F	14085	2	28190682	1	14168	1	0	next
conjunction	positive	30	T_green	hit	J	16019	2	28230185	1	16168	1	0	next
conjunction	positive	5	T_green	hit	J	6519	2	28271687	1	6667	1	0	next
conjunction	negative	5	Null	hit	F	8119	2	28303690	1	8167	1	0	next
conjunction	negative	30	Null	hit	F	21815	2	28337192	1	22001	1	0	next
conjunction	negative	30	Null	hit	F	19920	2	28384528	1	20001	1	0	next
conjunction	positive	5	T_green	hit	J	7067	2	28429864	1	7167	1	0	next
conjunction	negative	15	Null	hit	F	14883	2	28462366	1	15001	1	0	next
conjunction	positive	5	T_green	hit	J	8311	2	28502702	1	8501	1	0	next
conjunction	negative	15	Null	hit	F	9195	2	28536538	1	9334	1	0	next
conjunction	negative	5	Null	hit	F	7489	2	28571207	1	7667	1	0	next
conjunction	negative	5	Null	hit	F	8087	2	28604209	1	8167	1	0	next
conjunction	negative	5	Null	hit	F	11384	2	28637711	1	11501	1	0	next
conjunction	negative	1	Null	incorrect	J	5592	2	28674547	1	5667	1	0	next
conjunction	negative	1	Null	hit	F	11070	2	28705549	1	11167	1	0	next
conjunction	negative	1	Null	hit	F	9288	2	28742051	1	9334	1	0	next
conjunction	negative	30	Null	hit	F	23103	2	28776720	1	23168	1	0	next
conjunction	negative	15	Null	hit	F	9158	2	28825223	1	9334	1	0	next
conjunction	negative	30	Null	hit	F	17849	2	28859892	1	18001	1	0	next
conjunction	negative	15	Null	hit	F	7156	2	28903228	1	7334	1	0	next
conjunction	negative	1	Null	hit	F	7608	2	28935897	1	7667	1	0	next
conjunction	negative	30	Null	hit	F	16044	2	28968899	1	16168	1	0	next
conjunction	negative	1	Null	hit	F	8626	2	29010402	1	8667	1	0	next
conjunction	negative	30	Null	hit	F	15100	2	29044404	1	15168	1	0	next
conjunction	negative	30	Null	hit	F	8841	2	29084906	1	9001	1	0	next
conjunction	negative	30	Null	hit	F	9068	2	29119242	1	9167	1	0	next
conjunction	negative	30	Null	hit	F	6405	2	29153744	1	6500	1	0	next
conjunction	negative	1	Null	hit	F	8652	2	29185579	1	8834	1	0	next
