Target_Type	Trial_Type	Display_Size	Target	Response	Key_press	RT	Uncertainty	Time	Uncertainty	Duration	Uncertainty	ReqTime	ReqDur
disjunction	positive	15	T_blue	hit	J	8965	2	74874	1	9167	1	0	next
disjunction	positive	15	X_blue	hit	J	12228	2	109376	1	12334	1	0	next
disjunction	positive	5	S_brown	hit	J	18079	2	147045	1	18168	1	0	next
disjunction	positive	5	X_blue	hit	J	10258	2	190548	1	10334	1	0	next
disjunction	positive	5	S_brown	incorrect	F	16026	2	226217	1	16168	1	0	next
disjunction	positive	1	S_green	incorrect	F	22365	2	267720	1	22501	1	0	next
disjunction	positive	15	S_green	hit	J	11493	2	315556	1	11667	1	0	next
disjunction	negative	5	Null	incorrect	J	11772	2	352558	1	11834	1	0	next
disjunction	positive	30	T_blue	hit	J	13321	2	389727	1	13501	1	0	next
disjunction	positive	30	T_blue	hit	J	6805	2	428563	1	6834	1	0	next
disjunction	positive	30	S_brown	incorrect	F	17839	2	460732	1	18001	1	0	next
disjunction	negative	1	Null	incorrect	J	11303	2	504068	1	11501	1	0	next
disjunction	negative	15	Null	hit	F	16227	2	540904	1	16334	1	0	next
disjunction	positive	15	T_blue	hit	J	9119	2	582573	1	9167	1	0	next
disjunction	positive	5	X_blue	hit	J	11102	2	617075	1	11167	1	0	next
disjunction	positive	5	X_blue	hit	J	8036	2	653578	1	8167	1	0	next
disjunction	positive	15	S_green	incorrect	F	10379	2	687080	1	10501	1	0	next
disjunction	positive	1	X_blue	hit	J	7021	2	722915	1	7167	1	0	next
disjunction	negative	15	Null	hit	F	19960	2	755418	1	20001	1	0	next
disjunction	negative	30	Null	hit	F	13024	2	800754	1	13168	1	0	next
disjunction	negative	15	Null	hit	F	14362	2	839256	1	14501	1	0	next
disjunction	negative	1	Null	hit	F	20288	2	879092	1	20335	1	0	next
disjunction	negative	15	Null	hit	F	13179	2	924762	1	13334	1	0	next
disjunction	negative	30	Null	hit	F	17877	2	963431	1	18001	1	0	next
disjunction	positive	30	X_blue	hit	J	8457	2	1006767	1	8501	1	0	next
disjunction	negative	15	Null	hit	F	7583	2	1040603	1	7667	1	0	next
disjunction	positive	5	S_green	hit	J	13304	2	1073605	1	13334	1	0	next
disjunction	positive	15	S_brown	incorrect	F	4876	2	1112274	1	5000	1	0	next
disjunction	positive	15	S_green	hit	J	6697	2	1142609	1	6834	1	0	next
disjunction	positive	15	S_green	incorrect	F	6530	2	1174778	1	6667	1	0	next
disjunction	positive	1	T_blue	hit	J	8769	2	1206780	1	8834	1	0	next
disjunction	negative	5	Null	hit	F	18121	2	1240949	1	18168	1	0	next
disjunction	negative	15	Null	hit	F	14624	2	1284452	1	14668	1	0	next
disjunction	negative	15	Null	hit	F	13976	2	1324454	1	14168	1	0	next
disjunction	negative	30	Null	hit	F	15757	2	1363957	1	15834	1	0	next
disjunction	negative	15	Null	hit	F	12831	2	1405126	1	13001	1	0	next
disjunction	negative	30	Null	hit	F	8573	2	1443462	1	8667	1	0	next
disjunction	negative	15	Null	hit	F	11851	2	1477464	1	12001	1	0	next
disjunction	negative	5	Null	hit	F	10838	2	1514800	1	11001	1	0	next
disjunction	negative	30	Null	hit	F	9387	2	1551135	1	9501	1	0	next
disjunction	negative	1	Null	hit	F	7989	2	1585971	1	8167	1	0	next
disjunction	positive	30	T_blue	incorrect	F	17685	2	1619473	1	17834	1	0	next
disjunction	positive	1	S_brown	incorrect	F	9718	2	1662642	1	9834	1	0	next
disjunction	positive	30	T_blue	hit	J	7349	2	1697811	1	7500	1	0	next
disjunction	negative	5	Null	hit	F	18194	2	1730647	1	18335	1	0	next
disjunction	positive	1	S_green	hit	J	12286	2	1774316	1	12334	1	0	next
disjunction	positive	5	S_green	hit	J	8858	2	1811985	1	9001	1	0	next
disjunction	positive	5	T_blue	hit	J	5884	2	1846321	1	6000	1	0	next
disjunction	negative	15	Null	hit	F	16311	2	1877656	1	16501	1	0	next
disjunction	positive	15	T_blue	hit	J	6799	2	1919492	1	6834	1	0	next
disjunction	negative	30	Null	hit	F	11750	2	1951661	1	11834	1	0	next
disjunction	negative	1	Null	incorrect	J	9137	2	1988830	1	9167	1	0	next
disjunction	negative	5	Null	hit	F	11757	2	2023332	1	11834	1	0	next
disjunction	negative	15	Null	hit	F	13951	2	2060501	1	14001	1	0	next
disjunction	negative	30	Null	incorrect	J	10616	2	2099837	1	10667	1	0	next
disjunction	negative	15	Null	hit	F	8372	2	2135840	1	8501	1	0	next
disjunction	negative	15	Null	hit	F	8461	2	2169675	1	8501	1	0	next
disjunction	positive	15	T_blue	hit	J	7263	2	2203511	1	7334	1	0	next
disjunction	negative	5	Null	hit	F	11556	2	2236179	1	11667	1	0	next
disjunction	negative	5	Null	incorrect	J	6716	2	2273182	1	6834	1	0	next
disjunction	positive	5	S_brown	incorrect	F	6707	2	2305350	1	6834	1	0	next
disjunction	negative	15	Null	hit	F	15818	2	2337519	1	16001	1	0	next
disjunction	negative	1	Null	hit	F	21682	2	2378855	1	21835	1	0	next
disjunction	positive	15	T_blue	hit	J	8434	2	2426025	1	8501	1	0	next
disjunction	positive	5	S_brown	hit	J	20679	2	2459860	1	20835	1	0	next
disjunction	positive	15	S_brown	hit	J	13072	2	2506030	1	13168	1	0	next
disjunction	positive	1	S_green	hit	J	10253	2	2544532	1	10334	1	0	next
disjunction	negative	15	Null	hit	F	21302	2	2580201	1	21501	1	0	next
disjunction	positive	5	S_green	hit	J	11111	2	2627038	1	11167	1	0	next
disjunction	positive	1	T_blue	hit	J	9644	2	2663540	1	9834	1	0	next
disjunction	positive	5	S_green	hit	J	18637	2	2698709	1	18668	1	0	next
disjunction	positive	1	T_blue	hit	J	12715	2	2742712	1	12834	1	0	next
disjunction	positive	1	S_green	hit	J	11187	2	2780881	1	11334	1	0	next
disjunction	positive	5	X_blue	hit	J	16759	2	2817550	1	16834	1	0	next
disjunction	positive	5	X_blue	hit	J	6915	2	2859719	1	7000	1	0	next
disjunction	negative	5	Null	hit	F	21459	2	2892055	1	21501	1	0	next
disjunction	negative	30	Null	incorrect	J	16381	2	2938891	1	16501	1	0	next
disjunction	positive	5	S_green	hit	J	10227	2	2980727	1	10334	1	0	next
disjunction	negative	1	Null	hit	F	17758	2	3016396	1	17834	1	0	next
disjunction	negative	1	Null	hit	F	13954	2	3059565	1	14001	1	0	next
disjunction	positive	15	X_blue	hit	J	8854	2	3098901	1	9001	1	0	next
disjunction	positive	5	T_blue	hit	J	10840	2	3133237	1	11001	1	0	next
disjunction	negative	1	Null	hit	F	14345	2	3169573	1	14501	1	0	next
disjunction	positive	1	S_green	hit	J	8594	2	3209408	1	8667	1	0	next
disjunction	positive	15	S_brown	hit	J	13473	2	3243411	1	13668	1	0	next
disjunction	negative	30	Null	hit	F	18151	2	3282413	1	18335	1	0	next
disjunction	negative	5	Null	hit	F	25203	2	3326083	1	25335	1	0	next
disjunction	negative	5	Null	hit	F	15494	2	3376753	1	15668	1	0	next
disjunction	positive	15	S_green	hit	J	12734	2	3417755	1	12834	1	0	next
disjunction	positive	1	S_brown	hit	J	21606	2	3455924	1	21668	1	0	next
disjunction	negative	30	Null	hit	F	15239	2	3502927	1	15334	1	0	next
disjunction	negative	30	Null	hit	F	16493	2	3543597	1	16668	1	0	next
disjunction	negative	30	Null	hit	F	16249	2	3585599	1	16334	1	0	next
disjunction	positive	30	T_blue	hit	J	7861	2	3627269	1	8001	1	0	next
disjunction	positive	15	X_blue	hit	J	7970	2	3660604	1	8001	1	0	next
disjunction	negative	15	Null	hit	F	10314	2	3693940	1	10501	1	0	next
disjunction	negative	1	Null	hit	F	20078	2	3729775	1	20168	1	0	next
disjunction	negative	1	Null	hit	F	12016	2	3775278	1	12167	1	0	next
disjunction	negative	30	Null	hit	F	12436	2	3812780	1	12501	1	0	next
disjunction	negative	5	Null	hit	F	14119	2	3850616	1	14168	1	0	next
disjunction	negative	1	Null	hit	F	10620	2	3890119	1	10667	1	0	next
disjunction	positive	30	X_blue	hit	J	7896	2	3926121	1	8001	1	0	next
disjunction	negative	5	Null	hit	F	12323	2	3959457	1	12501	1	0	next
disjunction	negative	1	Null	hit	F	11608	2	3997292	1	11667	1	0	next
disjunction	positive	30	T_blue	hit	J	9007	2	4034295	1	9167	1	0	next
disjunction	negative	5	Null	hit	F	11308	2	4068797	1	11501	1	0	next
disjunction	positive	1	S_green	hit	J	11270	2	4105633	1	11334	1	0	next
disjunction	positive	30	S_brown	hit	J	14763	2	4142302	1	14834	1	0	next
disjunction	positive	30	S_brown	hit	J	8512	2	4182471	1	8667	1	0	next
disjunction	positive	30	X_blue	hit	J	9555	2	4216473	1	9667	1	0	next
disjunction	positive	1	S_brown	hit	J	7511	2	4251475	1	7667	1	0	next
disjunction	negative	30	Null	hit	F	19310	2	4284478	1	19501	1	0	next
disjunction	positive	30	X_blue	hit	J	8556	2	4329314	1	8667	1	0	next
disjunction	positive	1	S_brown	hit	J	10072	2	4363316	1	10167	1	0	next
disjunction	positive	1	X_blue	hit	J	10572	2	4398818	1	10667	1	0	next
disjunction	positive	30	X_blue	hit	J	7690	2	4434820	1	7834	1	0	next
disjunction	positive	30	X_blue	hit	J	6842	2	4467989	1	7000	1	0	next
disjunction	positive	1	S_brown	hit	J	8270	2	4500325	1	8334	1	0	next
disjunction	positive	30	S_brown	hit	J	16679	2	4533993	1	16834	1	0	next
disjunction	negative	1	Null	hit	F	10031	2	4576163	1	10167	1	0	next
disjunction	negative	30	Null	incorrect	J	16773	2	4611665	1	16834	1	0	next
disjunction	negative	1	Null	hit	F	10605	2	4653834	1	10667	1	0	next
disjunction	negative	1	Null	hit	F	13639	2	4689837	1	13834	1	0	next
disjunction	negative	30	Null	hit	F	16073	2	4729006	1	16168	1	0	next
disjunction	negative	5	Null	hit	F	13453	2	4770509	1	13501	1	0	next
disjunction	negative	5	Null	hit	F	10139	2	4809345	1	10334	1	0	next
disjunction	negative	1	Null	hit	F	14150	2	4845013	1	14334	1	0	next
disjunction	negative	5	Null	hit	F	10961	2	4884683	1	11167	1	0	next
conjunction	positive	1	T_green	hit	J	15914	2	5196536	1	16001	1	0	next
conjunction	positive	5	T_green	incorrect	F	9619	2	5237872	1	9667	1	0	next
conjunction	positive	5	T_green	incorrect	F	12380	2	5272874	1	12501	1	0	next
conjunction	negative	5	Null	hit	F	23343	2	5310710	1	23502	1	0	next
conjunction	positive	1	T_green	hit	J	13067	2	5359546	1	13167	1	0	next
conjunction	positive	15	T_green	incorrect	F	20006	2	5398049	1	20168	1	0	next
conjunction	positive	30	T_green	incorrect	F	22024	2	5443552	1	22168	1	0	next
conjunction	negative	1	Null	hit	F	15004	2	5491055	1	15168	1	0	next
conjunction	positive	5	T_green	hit	J	10669	2	5531557	1	10834	1	0	next
conjunction	positive	5	T_green	hit	J	12894	2	5567726	1	13001	1	0	next
conjunction	negative	1	Null	hit	F	12799	2	5606062	1	13001	1	0	next
conjunction	positive	15	T_green	hit	J	20866	2	5644398	1	21001	1	0	next
conjunction	positive	5	T_green	hit	J	11008	2	5690734	1	11167	1	0	next
conjunction	positive	15	T_green	hit	J	21229	2	5727237	1	21335	1	0	next
conjunction	positive	30	T_green	incorrect	F	30402	2	5773906	1	30502	1	0	next
conjunction	negative	1	Null	hit	F	16325	2	5829743	1	16501	1	0	next
conjunction	negative	1	Null	hit	F	9530	2	5871579	1	9667	1	0	next
conjunction	positive	5	T_green	hit	J	11968	2	5906582	1	12001	1	0	next
conjunction	negative	1	Null	hit	F	16711	2	5943917	1	16834	1	0	next
conjunction	negative	5	Null	hit	F	14069	2	5986087	1	14168	1	0	next
conjunction	negative	15	Null	hit	F	21445	2	6025589	1	21501	1	0	next
conjunction	positive	15	T_green	hit	J	17008	2	6072426	1	17168	1	0	next
conjunction	positive	5	T_green	hit	J	8266	2	6114928	1	8334	1	0	next
conjunction	positive	15	T_green	hit	J	12677	2	6148597	1	12834	1	0	next
conjunction	negative	15	Null	hit	F	19472	2	6186766	1	19668	1	0	next
conjunction	negative	1	Null	hit	F	14469	2	6231769	1	14668	1	0	next
conjunction	positive	15	T_green	hit	J	9667	2	6271772	1	9834	1	0	next
conjunction	negative	30	Null	hit	F	16417	2	6306941	1	16501	1	0	next
conjunction	positive	15	T_green	hit	J	12503	2	6348777	1	12667	1	0	next
conjunction	positive	15	T_green	hit	J	12102	2	6386779	1	12167	1	0	next
conjunction	negative	30	Null	hit	F	16843	2	6424281	1	17001	1	0	next
conjunction	positive	5	T_green	hit	J	7784	2	6466617	1	7834	1	0	next
conjunction	positive	15	T_green	hit	J	16379	2	6499786	1	16501	1	0	next
conjunction	negative	1	Null	hit	F	11180	2	6541622	1	11334	1	0	next
conjunction	positive	30	T_green	hit	J	10834	2	6578291	1	11001	1	0	next
conjunction	positive	5	T_green	hit	J	10178	2	6614627	1	10334	1	0	next
conjunction	positive	5	T_green	hit	J	7154	2	6650296	1	7334	1	0	next
conjunction	positive	5	T_green	hit	J	6163	2	6682965	1	6334	1	0	next
conjunction	negative	1	Null	hit	F	9535	2	6714633	1	9667	1	0	next
conjunction	negative	15	Null	hit	F	15335	2	6749636	1	15501	1	0	next
conjunction	positive	30	T_green	hit	J	12586	2	6790472	1	12667	1	0	next
conjunction	negative	15	Null	hit	F	15220	2	6828474	1	15334	1	0	next
conjunction	negative	15	Null	hit	F	13748	2	6869143	1	13834	1	0	next
conjunction	negative	1	Null	hit	F	11701	2	6908313	1	11834	1	0	next
conjunction	negative	1	Null	hit	F	8933	2	6945482	1	9001	1	0	next
conjunction	negative	5	Null	hit	F	18919	2	6979817	1	19001	1	0	next
conjunction	positive	30	T_green	hit	J	10424	2	7024153	1	10501	1	0	next
conjunction	negative	15	Null	hit	F	15072	2	7059989	1	15168	1	0	next
conjunction	positive	5	T_green	hit	J	10567	2	7100491	1	10667	1	0	next
conjunction	negative	30	Null	hit	F	16810	2	7136494	1	17001	1	0	next
conjunction	negative	15	Null	hit	F	13670	2	7178830	1	13834	1	0	next
conjunction	positive	15	T_green	hit	J	13547	2	7217999	1	13668	1	0	next
conjunction	negative	1	Null	hit	F	10223	2	7257002	1	10334	1	0	next
conjunction	negative	30	Null	hit	F	14074	2	7292671	1	14168	1	0	next
conjunction	positive	5	T_green	hit	J	7050	2	7332173	1	7167	1	0	next
conjunction	negative	5	Null	hit	F	10709	2	7364675	1	10834	1	0	next
conjunction	positive	15	T_green	hit	J	6861	2	7400844	1	7000	1	0	next
conjunction	positive	1	T_green	hit	J	7331	2	7433180	1	7500	1	0	next
conjunction	positive	30	T_green	hit	J	9692	2	7466015	1	9834	1	0	next
conjunction	positive	5	T_green	hit	J	9248	2	7501184	1	9334	1	0	next
conjunction	positive	1	T_green	hit	J	7056	2	7535853	1	7167	1	0	next
conjunction	negative	1	Null	hit	F	8643	2	7568355	1	8834	1	0	next
conjunction	negative	15	Null	incorrect	J	11906	2	7602524	1	12001	1	0	next
conjunction	positive	15	T_green	incorrect	F	10894	2	7639859	1	11001	1	0	next
conjunction	positive	1	T_green	hit	J	12319	2	7676195	1	12501	1	0	next
conjunction	positive	15	T_green	hit	J	12083	2	7714031	1	12167	1	0	next
conjunction	negative	1	Null	hit	F	15224	2	7751533	1	15334	1	0	next
conjunction	negative	5	Null	hit	F	13754	2	7792203	1	13834	1	0	next
conjunction	negative	15	Null	hit	F	15545	2	7831372	1	15668	1	0	next
conjunction	negative	30	Null	hit	F	17112	2	7872374	1	17168	1	0	next
conjunction	negative	15	Null	hit	F	13326	2	7914877	1	13501	1	0	next
conjunction	positive	15	T_green	hit	J	11291	2	7953713	1	11334	1	0	next
conjunction	negative	1	Null	hit	F	11422	2	7990382	1	11501	1	0	next
conjunction	positive	5	T_green	hit	J	9468	2	8027218	1	9501	1	0	next
conjunction	negative	1	Null	hit	F	9030	2	8062053	1	9167	1	0	next
conjunction	negative	30	Null	hit	F	15649	2	8096555	1	15834	1	0	next
conjunction	positive	15	T_green	hit	J	16239	2	8137725	1	16334	1	0	next
conjunction	positive	5	T_green	incorrect	F	10415	2	8179394	1	10501	1	0	next
conjunction	negative	15	Null	hit	F	16498	2	8215230	1	16668	1	0	next
conjunction	negative	30	Null	hit	F	21855	2	8257232	1	22001	1	0	next
conjunction	negative	5	Null	hit	F	12124	2	8304569	1	12167	1	0	next
conjunction	negative	1	Null	hit	F	9659	2	8342071	1	9834	1	0	next
conjunction	positive	15	T_green	hit	J	10330	2	8377240	1	10501	1	0	next
conjunction	positive	1	T_green	hit	J	8099	2	8413076	1	8167	1	0	next
conjunction	positive	1	T_green	hit	J	8195	2	8446578	1	8334	1	0	next
conjunction	positive	1	T_green	hit	J	5406	2	8480247	1	5500	1	0	next
conjunction	positive	30	T_green	hit	J	14735	2	8511082	1	14834	1	0	next
conjunction	negative	30	Null	hit	F	15523	2	8551251	1	15668	1	0	next
conjunction	negative	15	Null	hit	F	10202	2	8592254	1	10334	1	0	next
conjunction	negative	15	Null	hit	F	13095	2	8627923	1	13168	1	0	next
conjunction	positive	30	T_green	hit	J	13631	2	8666425	1	13668	1	0	next
conjunction	positive	30	T_green	hit	J	12070	2	8705428	1	12167	1	0	next
conjunction	positive	1	T_green	hit	J	7849	2	8742930	1	8001	1	0	next
conjunction	negative	30	Null	hit	F	18035	2	8776266	1	18168	1	0	next
conjunction	negative	30	Null	hit	F	16615	2	8819769	1	16668	1	0	next
conjunction	positive	1	T_green	hit	J	7414	2	8861771	1	7500	1	0	next
conjunction	positive	1	T_green	hit	J	6417	2	8894607	1	6500	1	0	next
conjunction	positive	30	T_green	hit	J	19069	2	8926442	1	19168	1	0	next
conjunction	negative	5	Null	hit	F	10080	2	8970945	1	10167	1	0	next
conjunction	negative	5	Null	hit	F	15221	2	9006447	1	15334	1	0	next
conjunction	negative	30	Null	hit	F	13910	2	9047116	1	14001	1	0	next
conjunction	negative	30	Null	hit	F	17140	2	9086452	1	17334	1	0	next
conjunction	negative	30	Null	hit	F	18787	2	9129122	1	18835	1	0	next
conjunction	negative	5	Null	hit	F	10139	2	9173291	1	10334	1	0	next
conjunction	negative	5	Null	hit	F	10791	2	9208960	1	10834	1	0	next
conjunction	negative	5	Null	hit	F	16543	2	9245129	1	16668	1	0	next
conjunction	positive	1	T_green	hit	J	8941	2	9287132	1	9001	1	0	next
conjunction	negative	5	Null	hit	F	12367	2	9321467	1	12501	1	0	next
conjunction	positive	30	T_green	hit	J	10375	2	9359303	1	10501	1	0	next
conjunction	negative	30	Null	hit	F	14857	2	9395139	1	15001	1	0	next
conjunction	positive	30	T_green	hit	J	8125	2	9435475	1	8167	1	0	next
conjunction	positive	30	T_green	hit	J	13181	2	9468977	1	13334	1	0	next
conjunction	positive	30	T_green	hit	J	18193	2	9507646	1	18335	1	0	next
conjunction	negative	15	Null	hit	F	13564	2	9551316	1	13667	1	0	next
conjunction	negative	30	Null	hit	F	13767	2	9590318	1	13834	1	0	next
conjunction	negative	5	Null	incorrect	J	12674	2	9629487	1	12834	1	0	next
conjunction	negative	5	Null	hit	F	12109	2	9667656	1	12167	1	0	next
conjunction	positive	30	T_green	hit	J	15244	2	9705159	1	15334	1	0	next
conjunction	positive	1	T_green	hit	J	8177	2	9745828	1	8334	1	0	next
conjunction	negative	5	Null	hit	F	12911	2	9779497	1	13001	1	0	next
conjunction	positive	30	T_green	hit	J	8496	2	9817833	1	8667	1	0	next
conjunction	negative	5	Null	hit	F	9214	2	9851835	1	9334	1	0	next
conjunction	negative	30	Null	hit	F	15025	2	9886504	1	15168	1	0	next
conjunction	negative	15	Null	hit	F	14205	2	9927006	1	14334	1	0	next
conjunction	positive	1	T_green	hit	J	8621	2	9966675	1	8667	1	0	next
conjunction	positive	1	T_green	hit	J	5656	2	10000678	1	5834	1	0	next
conjunction	negative	15	Null	hit	F	14490	2	10031846	1	14668	1	0	next
conjunction	positive	1	T_green	hit	J	9364	2	10071849	1	9501	1	0	next
conjunction	positive	15	T_green	hit	J	9944	2	10189356	1	10001	1	0	next
conjunction	positive	15	T_green	hit	J	13809	2	10224692	1	14001	1	0	next
conjunction	positive	30	T_green	hit	J	10794	2	10264028	1	10834	1	0	next
conjunction	negative	30	Null	hit	F	18303	2	10300197	1	18501	1	0	next
conjunction	negative	30	Null	hit	F	23747	2	10344033	1	23835	1	0	next
conjunction	positive	30	T_green	incorrect	F	14742	2	10393203	1	14834	1	0	next
conjunction	positive	5	T_green	hit	J	6250	2	10433372	1	6334	1	0	next
conjunction	negative	1	Null	hit	F	13142	2	10465041	1	13334	1	0	next
conjunction	positive	5	T_green	incorrect	F	6318	2	10503710	1	6500	1	0	next
conjunction	negative	1	Null	hit	F	10639	2	10535545	1	10834	1	0	next
conjunction	positive	15	T_green	hit	J	10952	2	10571714	1	11001	1	0	next
conjunction	negative	15	Null	hit	F	12542	2	10608050	1	12667	1	0	next
conjunction	negative	30	Null	hit	F	16136	2	10646052	1	16334	1	0	next
conjunction	positive	1	T_green	hit	J	8227	2	10687722	1	8334	1	0	next
conjunction	positive	1	T_green	hit	J	7840	2	10721391	1	8001	1	0	next
conjunction	negative	1	Null	hit	F	11308	2	10754726	1	11501	1	0	next
conjunction	negative	5	Null	hit	F	12714	2	10791562	1	12834	1	0	next
conjunction	positive	15	T_green	hit	J	8141	2	10829731	1	8334	1	0	next
conjunction	negative	5	Null	hit	F	7753	2	10863400	1	7834	1	0	next
conjunction	positive	30	T_green	hit	J	16346	2	10896568	1	16501	1	0	next
conjunction	positive	1	T_green	hit	J	10350	2	10938405	1	10501	1	0	next
conjunction	positive	30	T_green	hit	J	12757	2	10974240	1	12834	1	0	next
conjunction	negative	5	Null	hit	F	12830	2	11012409	1	13001	1	0	next
conjunction	positive	15	T_green	hit	J	7615	2	11050745	1	7667	1	0	next
conjunction	negative	5	Null	hit	F	10453	2	11083747	1	10501	1	0	next
conjunction	positive	5	T_green	hit	J	8698	2	11119583	1	8834	1	0	next
conjunction	negative	15	Null	hit	F	19335	2	11153752	1	19501	1	0	next
conjunction	negative	1	Null	hit	F	12740	2	11198588	1	12834	1	0	next
conjunction	positive	30	T_green	hit	J	9125	2	11236757	1	9167	1	0	next
conjunction	positive	15	T_green	hit	J	12067	2	11271259	1	12167	1	0	next
conjunction	positive	5	T_green	hit	J	7522	2	11308762	1	7667	1	0	next
conjunction	positive	5	T_green	hit	J	7809	2	11341764	1	8001	1	0	next
conjunction	negative	15	Null	hit	F	16551	2	11375099	1	16668	1	0	next
conjunction	positive	1	T_green	hit	J	15346	2	11417102	1	15501	1	0	next
conjunction	negative	30	Null	hit	F	15313	2	11457938	1	15501	1	0	next
conjunction	positive	30	T_green	hit	J	21039	2	11498774	1	21168	1	0	next
conjunction	positive	30	T_green	hit	J	13735	2	11545277	1	13834	1	0	next
conjunction	positive	5	T_green	hit	J	6245	2	11584446	1	6334	1	0	next
conjunction	negative	1	Null	hit	F	10580	2	11616115	1	10667	1	0	next
conjunction	positive	5	T_green	hit	J	8822	2	11652117	1	9001	1	0	next
conjunction	positive	5	T_green	hit	J	6804	2	11686453	1	7000	1	0	next
conjunction	positive	30	T_green	hit	J	9670	2	11718788	1	9834	1	0	next
conjunction	positive	30	T_green	hit	J	19782	2	11753957	1	19835	1	0	next
conjunction	negative	1	Null	hit	F	13490	2	11799126	1	13668	1	0	next
conjunction	negative	30	Null	hit	F	18010	2	11838129	1	18168	1	0	next
conjunction	negative	30	Null	hit	F	18827	2	11881632	1	19001	1	0	next
conjunction	positive	15	T_green	hit	J	9852	2	11925968	1	10001	1	0	next
conjunction	positive	5	T_green	hit	J	10517	2	11961303	1	10667	1	0	next
conjunction	positive	30	T_green	hit	J	19158	2	11997306	1	19335	1	0	next
conjunction	negative	5	Null	hit	F	22969	2	12041975	1	23001	1	0	next
conjunction	positive	15	T_green	hit	J	16233	2	12090312	1	16334	1	0	next
conjunction	negative	1	Null	hit	F	13925	2	12131981	1	14001	1	0	next
conjunction	negative	1	Null	hit	F	9477	2	12171317	1	9667	1	0	next
conjunction	negative	1	Null	hit	F	13675	2	12206319	1	13834	1	0	next
conjunction	negative	1	Null	hit	F	9699	2	12245488	1	9834	1	0	next
conjunction	positive	5	T_green	hit	J	16291	2	12280657	1	16334	1	0	next
conjunction	negative	30	Null	hit	F	21023	2	12322327	1	21168	1	0	next
conjunction	positive	1	T_green	hit	J	7971	2	12368830	1	8167	1	0	next
conjunction	positive	5	T_green	hit	J	6781	2	12402332	1	6834	1	0	next
conjunction	negative	15	Null	hit	F	12533	2	12434501	1	12667	1	0	next
conjunction	negative	1	Null	hit	F	12455	2	12472503	1	12501	1	0	next
conjunction	negative	15	Null	hit	F	12380	2	12510339	1	12501	1	0	next
conjunction	negative	30	Null	hit	F	15661	2	12548175	1	15834	1	0	next
conjunction	negative	5	Null	hit	F	7133	2	12589344	1	7167	1	0	next
conjunction	positive	30	T_green	hit	J	14314	2	12621846	1	14501	1	0	next
conjunction	positive	1	T_green	hit	J	9038	2	12661682	1	9167	1	0	next
conjunction	negative	1	Null	hit	F	10857	2	12696184	1	11001	1	0	next
conjunction	negative	5	Null	hit	F	12602	2	12732520	1	12667	1	0	next
conjunction	positive	15	T_green	hit	J	12044	2	12770522	1	12167	1	0	next
conjunction	negative	5	Null	hit	F	11018	2	12808024	1	11167	1	0	next
conjunction	positive	1	T_green	hit	J	9239	2	12844527	1	9334	1	0	next
conjunction	negative	1	Null	hit	F	10568	2	12879196	1	10667	1	0	next
conjunction	negative	5	Null	hit	F	8648	2	12915198	1	8834	1	0	next
conjunction	negative	15	Null	hit	F	12243	2	12949367	1	12334	1	0	next
conjunction	negative	1	Null	hit	F	10415	2	12987036	1	10501	1	0	next
conjunction	positive	30	T_green	hit	J	12018	2	13022872	1	12167	1	0	next
conjunction	negative	15	Null	hit	F	14195	2	13060374	1	14334	1	0	next
conjunction	positive	1	T_green	hit	J	11328	2	13100043	1	11501	1	0	next
conjunction	positive	15	T_green	hit	J	12104	2	13136879	1	12167	1	0	next
conjunction	negative	1	Null	hit	F	9634	2	13174381	1	9667	1	0	next
conjunction	positive	5	T_green	hit	J	8393	2	13209384	1	8501	1	0	next
conjunction	negative	30	Null	hit	F	18234	2	13243219	1	18334	1	0	next
conjunction	positive	15	T_green	hit	J	11048	2	13286889	1	11167	1	0	next
conjunction	negative	15	Null	hit	F	13106	2	13323391	1	13168	1	0	next
conjunction	negative	1	Null	hit	F	9647	2	13361893	1	9834	1	0	next
conjunction	positive	5	T_green	hit	J	6959	2	13397062	1	7000	1	0	next
conjunction	negative	30	Null	hit	F	15901	2	13429398	1	16001	1	0	next
conjunction	negative	5	Null	hit	F	13448	2	13470734	1	13501	1	0	next
conjunction	negative	15	Null	hit	F	14292	2	13509570	1	14334	1	0	next
conjunction	negative	15	Null	hit	F	9666	2	13549239	1	9834	1	0	next
conjunction	positive	5	T_green	hit	J	8898	2	13584408	1	9001	1	0	next
conjunction	negative	5	Null	hit	F	13763	2	13618743	1	13834	1	0	next
conjunction	negative	30	Null	hit	F	16191	2	13657912	1	16334	1	0	next
conjunction	positive	15	T_green	incorrect	F	12607	2	13699582	1	12667	1	0	next
conjunction	negative	15	Null	hit	F	13807	2	13737584	1	14001	1	0	next
conjunction	negative	15	Null	hit	F	16070	2	13776920	1	16168	1	0	next
conjunction	negative	30	Null	hit	F	23526	2	13818423	1	23668	1	0	next
conjunction	negative	30	Null	hit	F	20927	2	13867426	1	21001	1	0	next
conjunction	positive	30	T_green	hit	J	8670	2	13913762	1	8834	1	0	next
conjunction	negative	5	Null	hit	F	9543	2	13947931	1	9667	1	0	next
conjunction	positive	1	T_green	hit	J	7819	2	13982933	1	8001	1	0	next
conjunction	negative	5	Null	hit	F	7610	2	14016269	1	7667	1	0	next
conjunction	negative	15	Null	hit	F	15884	2	14049271	1	16001	1	0	next
conjunction	positive	1	T_green	hit	J	7508	2	14090607	1	7667	1	0	next
conjunction	negative	5	Null	hit	F	10671	2	14123609	1	10834	1	0	next
conjunction	negative	30	Null	hit	F	17544	2	14159778	1	17668	1	0	next
conjunction	negative	15	Null	hit	F	19498	2	14202781	1	19668	1	0	next
conjunction	negative	5	Null	hit	F	11777	2	14247784	1	11834	1	0	next
conjunction	positive	5	T_green	hit	J	13649	2	14284953	1	13834	1	0	next
conjunction	positive	15	T_green	hit	J	8247	2	14324122	1	8334	1	0	next
conjunction	positive	15	T_green	hit	J	9454	2	14357791	1	9501	1	0	next
conjunction	negative	5	Null	hit	F	13177	2	14392626	1	13334	1	0	next
conjunction	negative	30	Null	hit	F	18349	2	14431295	1	18501	1	0	next
conjunction	positive	1	T_green	hit	J	6193	2	14475132	1	6334	1	0	next
conjunction	negative	30	Null	hit	F	19326	2	14506800	1	19501	1	0	next
conjunction	positive	15	T_green	hit	J	9210	2	14551636	1	9334	1	0	next
conjunction	positive	15	T_green	hit	J	9906	2	14586305	1	10001	1	0	next
conjunction	negative	15	Null	hit	F	13931	2	14621641	1	14001	1	0	next
conjunction	positive	5	T_green	hit	J	10276	2	14660977	1	10334	1	0	next
conjunction	positive	1	T_green	hit	J	6125	2	14696646	1	6167	1	0	next
conjunction	negative	15	Null	hit	F	22943	2	14728148	1	23001	1	0	next
conjunction	positive	30	T_green	hit	J	8049	2	14776484	1	8167	1	0	next
conjunction	positive	1	T_green	hit	J	15027	2	14809986	1	15168	1	0	next
conjunction	positive	30	T_green	hit	J	7970	2	14850489	1	8001	1	0	next
conjunction	positive	30	T_green	hit	J	8391	2	14883824	1	8501	1	0	next
conjunction	positive	1	T_green	hit	J	5277	2	14917660	1	5334	1	0	next
conjunction	positive	1	T_green	hit	J	5648	2	14948329	1	5834	1	0	next
conjunction	positive	1	T_green	hit	J	5680	2	14979497	1	5834	1	0	next
disjunction	positive	30	S_green	hit	J	26386	2	15073837	1	26502	1	0	next
disjunction	negative	1	Null	hit	F	11188	2	15125673	1	11334	1	0	next
disjunction	negative	15	Null	hit	F	15002	2	15162342	1	15168	1	0	next
disjunction	negative	15	Null	hit	F	13380	2	15202845	1	13501	1	0	next
disjunction	positive	5	S_green	hit	J	13270	2	15241681	1	13334	1	0	next
disjunction	negative	15	Null	hit	F	15246	2	15280350	1	15334	1	0	next
disjunction	negative	15	Null	hit	F	19527	2	15321019	1	19668	1	0	next
disjunction	negative	1	Null	hit	F	14685	2	15366022	1	14834	1	0	next
disjunction	negative	1	Null	hit	F	7960	2	15406191	1	8001	1	0	next
disjunction	negative	30	Null	hit	F	19264	2	15439527	1	19335	1	0	next
disjunction	positive	5	S_green	hit	J	9794	2	15484196	1	9834	1	0	next
disjunction	positive	30	S_green	hit	J	15270	2	15519365	1	15334	1	0	next
disjunction	positive	5	S_brown	hit	J	8678	2	15560034	1	8834	1	0	next
disjunction	negative	1	Null	hit	F	12434	2	15594203	1	12501	1	0	next
disjunction	negative	5	Null	hit	F	15399	2	15632039	1	15501	1	0	next
disjunction	negative	1	Null	hit	F	16162	2	15672875	1	16334	1	0	next
disjunction	positive	30	X_blue	hit	J	9852	2	15714544	1	10001	1	0	next
disjunction	negative	30	Null	hit	F	19640	2	15749880	1	19835	1	0	next
disjunction	negative	5	Null	hit	F	23913	2	15795050	1	24002	1	0	next
disjunction	negative	5	Null	hit	F	14739	2	15844386	1	14834	1	0	next
disjunction	positive	30	X_blue	hit	J	7525	2	15884555	1	7667	1	0	next
disjunction	positive	15	S_green	hit	J	7644	2	15917557	1	7834	1	0	next
disjunction	negative	1	Null	hit	F	8718	2	15950726	1	8834	1	0	next
disjunction	negative	1	Null	hit	F	15992	2	15984895	1	16168	1	0	next
disjunction	negative	1	Null	hit	F	9207	2	16026398	1	9334	1	0	next
disjunction	negative	15	Null	hit	F	13261	2	16061067	1	13334	1	0	next
disjunction	negative	15	Null	hit	F	12672	2	16099736	1	12834	1	0	next
disjunction	negative	5	Null	hit	F	13702	2	16137905	1	13834	1	0	next
disjunction	positive	15	S_green	hit	J	5736	2	16177074	1	5834	1	0	next
disjunction	negative	15	Null	hit	F	8487	2	16208243	1	8667	1	0	next
disjunction	positive	5	S_green	hit	J	7127	2	16242245	1	7167	1	0	next
disjunction	negative	1	Null	hit	F	10943	2	16274747	1	11001	1	0	next
disjunction	positive	15	S_brown	hit	J	12530	2	16311083	1	12667	1	0	next
disjunction	negative	5	Null	hit	F	9247	2	16349085	1	9334	1	0	next
disjunction	negative	5	Null	hit	F	14740	2	16383754	1	14834	1	0	next
disjunction	positive	5	X_blue	hit	J	7056	2	16423923	1	7167	1	0	next
disjunction	negative	5	Null	hit	F	8795	2	16456425	1	8834	1	0	next
disjunction	positive	15	X_blue	hit	J	7583	2	16490594	1	7667	1	0	next
disjunction	positive	5	T_blue	hit	J	7224	2	16523596	1	7334	1	0	next
disjunction	negative	1	Null	hit	F	9114	2	16556265	1	9167	1	0	next
disjunction	negative	30	Null	hit	F	30292	2	16590767	1	30335	1	0	next
disjunction	negative	15	Null	hit	F	14306	2	16646438	1	14501	1	0	next
disjunction	negative	1	Null	hit	F	11589	2	16686273	1	11667	1	0	next
disjunction	positive	5	T_blue	hit	J	7067	2	16723276	1	7167	1	0	next
disjunction	positive	30	S_green	hit	J	25609	2	16755778	1	25668	1	0	next
disjunction	negative	1	Null	hit	F	9642	2	16806781	1	9834	1	0	next
disjunction	positive	1	X_blue	hit	J	9515	2	16841950	1	9667	1	0	next
disjunction	negative	15	Null	hit	F	17394	2	16876952	1	17501	1	0	next
disjunction	positive	30	S_brown	hit	J	8320	2	16919788	1	8501	1	0	next
disjunction	negative	30	Null	hit	F	25205	2	16953624	1	25335	1	0	next
disjunction	positive	30	S_green	hit	J	9575	2	17004294	1	9667	1	0	next
disjunction	positive	30	S_green	hit	J	9937	2	17039296	1	10001	1	0	next
disjunction	negative	15	Null	hit	F	14282	2	17074632	1	14334	1	0	next
disjunction	positive	5	T_blue	hit	J	7251	2	17114301	1	7334	1	0	next
disjunction	positive	15	X_blue	hit	J	6583	2	17146970	1	6667	1	0	next
disjunction	positive	1	S_brown	hit	J	9622	2	17178972	1	9667	1	0	next
disjunction	negative	15	Null	hit	F	12862	2	17213974	1	13001	1	0	next
disjunction	negative	5	Null	hit	F	23647	2	17252310	1	23835	1	0	next
disjunction	positive	30	S_green	hit	J	8561	2	17301480	1	8667	1	0	next
disjunction	negative	1	Null	hit	F	9917	2	17335482	1	10001	1	0	next
disjunction	positive	5	X_blue	hit	J	6901	2	17370817	1	7000	1	0	next
disjunction	positive	1	T_blue	hit	J	5607	2	17403153	1	5667	1	0	next
disjunction	positive	15	S_brown	hit	J	7247	2	17434155	1	7334	1	0	next
disjunction	positive	15	T_blue	hit	J	7220	2	17466824	1	7334	1	0	next
disjunction	negative	5	Null	hit	F	15829	2	17499492	1	16001	1	0	next
disjunction	positive	30	X_blue	hit	J	6014	2	17540828	1	6167	1	0	next
disjunction	positive	1	X_blue	hit	J	22194	2	17572330	1	22335	1	0	next
disjunction	positive	15	S_brown	hit	J	7968	2	17620000	1	8001	1	0	next
disjunction	positive	1	T_blue	hit	J	9830	2	17653336	1	10001	1	0	next
disjunction	negative	30	Null	hit	F	16895	2	17688671	1	17001	1	0	next
disjunction	positive	15	T_blue	hit	J	7200	2	17731007	1	7334	1	0	next
disjunction	negative	30	Null	hit	F	11657	2	17763676	1	11834	1	0	next
disjunction	negative	15	Null	hit	F	13214	2	17800845	1	13334	1	0	next
disjunction	negative	30	Null	hit	F	12617	2	17839514	1	12667	1	0	next
disjunction	negative	1	Null	hit	F	10614	2	17877517	1	10667	1	0	next
disjunction	positive	15	T_blue	hit	J	6614	2	17913519	1	6667	1	0	next
disjunction	positive	30	X_blue	hit	J	6296	2	17945521	1	6334	1	0	next
disjunction	positive	30	T_blue	hit	J	5664	2	17977190	1	5834	1	0	next
disjunction	negative	1	Null	hit	F	10016	2	18008358	1	10167	1	0	next
disjunction	negative	30	Null	hit	F	27639	2	18043861	1	27835	1	0	next
disjunction	negative	5	Null	hit	F	12546	2	18097031	1	12667	1	0	next
disjunction	negative	15	Null	hit	F	8469	2	18135033	1	8667	1	0	next
disjunction	positive	1	S_brown	hit	J	12543	2	18169035	1	12667	1	0	next
disjunction	positive	1	S_brown	hit	J	11503	2	18207038	1	11667	1	0	next
disjunction	negative	5	Null	hit	F	10341	2	18244040	1	10501	1	0	next
disjunction	negative	1	Null	hit	F	12427	2	18279876	1	12501	1	0	next
disjunction	negative	15	Null	hit	F	16352	2	18317711	1	16501	1	0	next
disjunction	positive	15	S_green	hit	J	9717	2	18359547	1	9834	1	0	next
disjunction	positive	1	X_blue	hit	J	7828	2	18394716	1	8000	1	0	next
disjunction	positive	1	T_blue	hit	J	5217	2	18428052	1	5334	1	0	next
disjunction	positive	15	S_brown	hit	J	10066	2	18458721	1	10167	1	0	next
disjunction	negative	5	Null	hit	F	14086	2	18494223	1	14168	1	0	next
disjunction	positive	15	S_green	hit	J	11704	2	18533725	1	11834	1	0	next
disjunction	positive	30	T_blue	hit	J	6535	2	18570894	1	6667	1	0	next
disjunction	positive	1	S_brown	hit	J	7015	2	18602896	1	7167	1	0	next
disjunction	negative	5	Null	hit	F	11633	2	18635399	1	11667	1	0	next
disjunction	negative	30	Null	hit	F	13351	2	18672401	1	13501	1	0	next
disjunction	positive	15	T_blue	hit	J	6196	2	18711237	1	6334	1	0	next
disjunction	negative	15	Null	hit	F	14371	2	18742905	1	14501	1	0	next
disjunction	positive	1	T_blue	hit	J	6213	2	18782741	1	6334	1	0	next
disjunction	positive	5	T_blue	hit	J	6231	2	18814410	1	6334	1	0	next
disjunction	positive	1	S_brown	hit	J	7997	2	18846079	1	8167	1	0	next
disjunction	positive	30	S_brown	hit	J	9375	2	18879581	1	9501	1	0	next
disjunction	positive	1	X_blue	hit	J	13745	2	18914416	1	13834	1	0	next
disjunction	negative	30	Null	hit	F	10894	2	18953586	1	11001	1	0	next
disjunction	negative	15	Null	hit	F	10240	2	18989921	1	10334	1	0	next
disjunction	positive	30	X_blue	hit	J	5933	2	19025590	1	6000	1	0	next
disjunction	positive	5	S_brown	hit	J	5956	2	19056926	1	6000	1	0	next
disjunction	negative	5	Null	hit	F	8704	2	19088261	1	8834	1	0	next
disjunction	positive	1	T_blue	hit	J	4457	2	19122430	1	4500	1	0	next
disjunction	negative	30	Null	hit	F	8541	2	19152265	1	8667	1	0	next
disjunction	negative	5	Null	hit	F	10058	2	19186267	1	10167	1	0	next
disjunction	positive	15	X_blue	hit	J	6559	2	19221770	1	6667	1	0	next
disjunction	negative	30	Null	hit	F	8477	2	19253772	1	8667	1	0	next
disjunction	negative	5	Null	hit	F	15274	2	19287774	1	15334	1	0	next
disjunction	positive	30	X_blue	hit	J	6767	2	19328443	1	6834	1	0	next
disjunction	negative	30	Null	hit	F	14917	2	19360612	1	15001	1	0	next
disjunction	positive	5	S_brown	hit	J	6742	2	19400948	1	6834	1	0	next
disjunction	positive	5	T_blue	hit	J	7055	2	19433116	1	7167	1	0	next
disjunction	positive	1	S_brown	hit	J	8155	2	19465619	1	8334	1	0	next
disjunction	positive	5	X_blue	hit	J	6167	2	19499287	1	6334	1	0	next
disjunction	negative	30	Null	hit	F	15624	2	19530956	1	15668	1	0	next
disjunction	negative	30	Null	incorrect	J	17497	2	19571959	1	17668	1	0	next
disjunction	positive	15	S_brown	hit	J	7777	2	19614961	1	7834	1	0	next
disjunction	positive	1	S_green	hit	J	11088	2	19648130	1	11167	1	0	next
disjunction	positive	5	S_green	hit	J	6109	2	19684633	1	6167	1	0	next
disjunction	negative	30	Null	hit	F	15567	2	19716135	1	15668	1	0	next
disjunction	positive	5	S_green	hit	J	8321	2	19757137	1	8501	1	0	next
disjunction	negative	5	Null	hit	F	10466	2	20227167	1	10501	1	0	next
disjunction	negative	30	Null	hit	F	11749	2	20263003	1	11834	1	0	next
disjunction	negative	15	Null	hit	F	8182	2	20300172	1	8334	1	0	next
disjunction	positive	5	S_green	hit	J	7476	2	20333841	1	7667	1	0	next
disjunction	positive	1	X_blue	hit	J	6955	2	20366843	1	7000	1	0	next
disjunction	negative	1	Null	hit	F	8538	2	20399178	1	8667	1	0	next
disjunction	positive	1	X_blue	hit	J	5897	2	20433181	1	6000	1	0	next
disjunction	negative	5	Null	hit	F	12002	2	20464516	1	12167	1	0	next
disjunction	positive	1	S_brown	hit	J	7942	2	20502018	1	8000	1	0	next
disjunction	negative	1	Null	hit	F	13005	2	20535354	1	13168	1	0	next
disjunction	positive	1	X_blue	hit	J	7783	2	20573856	1	7834	1	0	next
disjunction	negative	15	Null	hit	F	13338	2	20607025	1	13501	1	0	next
disjunction	negative	30	Null	hit	F	8107	2	20645861	1	8167	1	0	next
disjunction	negative	15	Null	hit	F	7409	2	20679363	1	7500	1	0	next
disjunction	positive	15	S_green	hit	J	8809	2	20712199	1	9001	1	0	next
disjunction	positive	1	S_green	hit	J	7272	2	20746534	1	7334	1	0	next
disjunction	negative	15	Null	hit	F	9966	2	20779203	1	10001	1	0	next
disjunction	positive	30	S_brown	hit	J	12227	2	20814539	1	12334	1	0	next
disjunction	positive	1	S_green	hit	J	11040	2	20852207	1	11167	1	0	next
disjunction	negative	15	Null	hit	F	9420	2	20888710	1	9501	1	0	next
disjunction	positive	5	S_brown	hit	J	7865	2	20923545	1	8001	1	0	next
disjunction	negative	30	Null	hit	F	12132	2	20956881	1	12167	1	0	next
disjunction	negative	5	Null	hit	F	8707	2	20994383	1	8834	1	0	next
disjunction	positive	1	X_blue	hit	J	6219	2	21028552	1	6334	1	0	next
disjunction	negative	5	Null	hit	F	10877	2	21060221	1	11001	1	0	next
disjunction	negative	5	Null	hit	F	9740	2	21096556	1	9834	1	0	next
disjunction	negative	30	Null	hit	F	6890	2	21131725	1	7000	1	0	next
disjunction	negative	5	Null	hit	F	5595	2	21164061	1	5667	1	0	next
disjunction	negative	5	Null	hit	F	6914	2	21195063	1	7000	1	0	next
disjunction	negative	30	Null	hit	F	9301	2	21227398	1	9501	1	0	next
disjunction	positive	15	T_blue	hit	J	6627	2	21262234	1	6667	1	0	next
disjunction	positive	5	S_brown	hit	J	7586	2	21294236	1	7667	1	0	next
disjunction	positive	5	X_blue	hit	J	7861	2	21327238	1	8001	1	0	next
disjunction	negative	15	Null	hit	F	7966	2	21360573	1	8001	1	0	next
disjunction	positive	5	T_blue	hit	J	5836	2	21393909	1	6000	1	0	next
disjunction	positive	1	S_green	hit	J	8739	2	21425244	1	8834	1	0	next
disjunction	negative	30	Null	hit	F	7213	2	21459413	1	7334	1	0	next
disjunction	positive	30	T_blue	hit	J	6061	2	21492082	1	6167	1	0	next
disjunction	negative	15	Null	hit	F	12164	2	21523584	1	12334	1	0	next
disjunction	negative	15	Null	hit	F	13373	2	21561253	1	13501	1	0	next
disjunction	positive	15	X_blue	hit	J	5421	2	21600089	1	5500	1	0	next
disjunction	negative	30	Null	hit	F	13782	2	21630924	1	13834	1	0	next
disjunction	negative	30	Null	hit	F	10782	2	21670093	1	10834	1	0	next
disjunction	negative	15	Null	hit	F	12848	2	21706262	1	13001	1	0	next
disjunction	negative	30	Null	hit	F	6994	2	21744598	1	7167	1	0	next
disjunction	positive	5	T_blue	hit	J	6170	2	21777100	1	6334	1	0	next
disjunction	positive	15	S_green	hit	J	9542	2	21808769	1	9667	1	0	next
disjunction	positive	15	T_blue	hit	J	6861	2	21843771	1	7000	1	0	next
disjunction	positive	1	S_brown	hit	J	7006	2	21876107	1	7167	1	0	next
disjunction	negative	5	Null	hit	F	15467	2	21908609	1	15501	1	0	next
disjunction	positive	15	T_blue	hit	J	5990	2	21949445	1	6167	1	0	next
disjunction	positive	1	S_green	hit	J	7288	2	21980947	1	7334	1	0	next
disjunction	positive	1	S_green	hit	J	5824	2	22013615	1	6000	1	0	next
disjunction	positive	30	X_blue	hit	J	5848	2	22044951	1	6000	1	0	next
disjunction	positive	1	T_blue	hit	J	4755	2	22076286	1	4834	1	0	next
disjunction	negative	1	Null	hit	F	13307	2	22106455	1	13501	1	0	next
disjunction	negative	1	Null	hit	F	9989	2	22145291	1	10167	1	0	next
disjunction	positive	15	S_green	hit	J	10972	2	22180793	1	11167	1	0	next
disjunction	negative	15	Null	hit	F	15906	2	22217295	1	16001	1	0	next
disjunction	positive	5	T_blue	hit	J	6251	2	22258631	1	6334	1	0	next
disjunction	positive	30	S_brown	hit	J	13310	2	22290300	1	13501	1	0	next
disjunction	negative	30	Null	hit	F	16549	2	22329136	1	16668	1	0	next
disjunction	negative	5	Null	incorrect	J	15187	2	22371138	1	15334	1	0	next
disjunction	positive	30	T_blue	hit	J	6680	2	22411808	1	6834	1	0	next
disjunction	negative	1	Null	hit	F	11317	2	22443976	1	11501	1	0	next
disjunction	negative	30	Null	hit	F	16720	2	22480812	1	16834	1	0	next
disjunction	positive	30	S_brown	hit	J	10393	2	22522981	1	10501	1	0	next
disjunction	positive	15	S_brown	hit	J	6713	2	22558817	1	6834	1	0	next
disjunction	positive	5	S_green	hit	J	10550	2	22590986	1	10667	1	0	next
disjunction	positive	15	T_blue	hit	J	7024	2	22626988	1	7167	1	0	next
disjunction	negative	15	Null	hit	F	12766	2	22659490	1	12834	1	0	next
disjunction	positive	1	S_green	hit	J	5476	2	22697659	1	5667	1	0	next
disjunction	positive	15	S_green	hit	J	6154	2	22728661	1	6334	1	0	next
disjunction	negative	5	Null	hit	F	8246	2	22760330	1	8334	1	0	next
disjunction	positive	30	S_brown	hit	J	8337	2	22793999	1	8501	1	0	next
disjunction	positive	1	S_green	hit	J	8909	2	22827834	1	9001	1	0	next
disjunction	negative	15	Null	hit	F	14728	2	22862170	1	14834	1	0	next
disjunction	negative	5	Null	hit	F	10880	2	22902339	1	11001	1	0	next
disjunction	negative	1	Null	hit	F	14396	2	22938675	1	14501	1	0	next
disjunction	negative	30	Null	hit	F	13113	2	22978511	1	13168	1	0	next
disjunction	negative	1	Null	hit	F	9970	2	23017013	1	10001	1	0	next
disjunction	negative	1	Null	hit	F	8080	2	23052349	1	8167	1	0	next
disjunction	positive	30	T_blue	hit	J	6258	2	23085851	1	6334	1	0	next
disjunction	negative	5	Null	hit	F	9948	2	23117520	1	10001	1	0	next
disjunction	positive	5	S_brown	hit	J	8370	2	23152855	1	8501	1	0	next
disjunction	positive	30	X_blue	hit	J	8617	2	23186691	1	8667	1	0	next
disjunction	positive	5	S_brown	hit	J	5654	2	23220693	1	5834	1	0	next
disjunction	positive	1	S_brown	hit	J	5046	2	23251862	1	5167	1	0	next
disjunction	negative	1	Null	hit	F	9425	2	23282363	1	9501	1	0	next
disjunction	negative	1	Null	hit	F	12350	2	23317199	1	12501	1	0	next
disjunction	positive	1	T_blue	hit	J	6036	2	23355035	1	6167	1	0	next
disjunction	negative	1	Null	hit	F	11817	2	23386537	1	12001	1	0	next
disjunction	positive	30	S_green	hit	J	9039	2	23423873	1	9167	1	0	next
disjunction	negative	30	Null	hit	F	14698	2	23458375	1	14834	1	0	next
disjunction	positive	30	T_blue	hit	J	5729	2	23498544	1	5834	1	0	next
disjunction	positive	5	X_blue	hit	J	5763	2	23529713	1	5834	1	0	next
disjunction	negative	5	Null	hit	F	8836	2	23560881	1	9001	1	0	next
disjunction	positive	15	T_blue	hit	J	6822	2	23595217	1	7000	1	0	next
disjunction	negative	15	Null	hit	F	11289	2	23627552	1	11334	1	0	next
disjunction	positive	30	S_brown	hit	J	10940	2	23664221	1	11001	1	0	next
disjunction	negative	15	Null	hit	F	13648	2	23700557	1	13834	1	0	next
disjunction	positive	30	T_blue	hit	J	6795	2	23739726	1	6834	1	0	next
disjunction	positive	15	S_green	hit	J	9026	2	23771895	1	9167	1	0	next
disjunction	negative	1	Null	hit	F	11330	2	23806397	1	11501	1	0	next
disjunction	negative	15	Null	hit	F	15450	2	23843233	1	15501	1	0	next
disjunction	negative	1	Null	hit	F	11900	2	23884069	1	12001	1	0	next
disjunction	positive	30	S_green	hit	J	11045	2	23921404	1	11167	1	0	next
disjunction	negative	5	Null	hit	F	10382	2	23957907	1	10501	1	0	next
disjunction	positive	5	X_blue	hit	J	9263	2	23993742	1	9334	1	0	next
disjunction	negative	30	Null	hit	F	15556	2	24028411	1	15668	1	0	next
disjunction	positive	5	X_blue	hit	J	5434	2	24069414	1	5500	1	0	next
disjunction	negative	1	Null	hit	F	13004	2	24100249	1	13168	1	0	next
disjunction	positive	30	S_brown	hit	J	9058	2	24138752	1	9167	1	0	next
disjunction	positive	15	S_brown	hit	J	6081	2	24173254	1	6167	1	0	next
disjunction	negative	30	Null	hit	F	13940	2	24204756	1	14001	1	0	next
disjunction	positive	5	S_brown	hit	J	6763	2	24244092	1	6834	1	0	next
disjunction	negative	1	Null	hit	F	9637	2	24276261	1	9834	1	0	next
disjunction	positive	5	X_blue	hit	J	10148	2	24311430	1	10334	1	0	next
disjunction	positive	30	X_blue	hit	J	18959	2	24347098	1	19001	1	0	next
disjunction	positive	5	X_blue	hit	J	5667	2	24391435	1	5834	1	0	next
disjunction	positive	15	T_blue	hit	J	6658	2	24422603	1	6834	1	0	next
disjunction	negative	5	Null	hit	F	11770	2	24454772	1	11834	1	0	next
disjunction	negative	5	Null	hit	F	12358	2	24491941	1	12501	1	0	next
disjunction	negative	30	Null	hit	F	15965	2	24529777	1	16001	1	0	next
disjunction	positive	15	X_blue	hit	J	6788	2	24571113	1	6834	1	0	next
disjunction	positive	15	X_blue	hit	J	9180	2	24603282	1	9334	1	0	next
disjunction	negative	15	Null	hit	F	16754	2	24637950	1	16834	1	0	next
disjunction	negative	1	Null	hit	F	10268	2	24680120	1	10334	1	0	next
conjunction	positive	5	T_green	hit	J	17071	2	25021642	1	17168	1	0	next
conjunction	positive	30	T_green	hit	J	12654	2	25064145	1	12834	1	0	next
conjunction	negative	5	Null	hit	F	9361	2	25102314	1	9501	1	0	next
conjunction	negative	1	Null	hit	F	11649	2	25137149	1	11834	1	0	next
conjunction	negative	30	Null	hit	F	15438	2	25174318	1	15501	1	0	next
conjunction	positive	15	T_green	hit	J	8525	2	25215154	1	8667	1	0	next
conjunction	positive	5	T_green	hit	J	12922	2	25249156	1	13001	1	0	next
conjunction	positive	15	T_green	hit	J	8988	2	25287492	1	9167	1	0	next
conjunction	negative	15	Null	hit	F	13206	2	25321994	1	13334	1	0	next
conjunction	negative	5	Null	incorrect	J	14064	2	25360664	1	14168	1	0	next
conjunction	negative	15	Null	hit	F	10720	2	25400166	1	10834	1	0	next
conjunction	negative	1	Null	hit	F	14069	2	25436335	1	14168	1	0	next
conjunction	negative	1	Null	hit	F	9929	2	25475838	1	10001	1	0	next
conjunction	negative	5	Null	hit	F	11555	2	25511173	1	11667	1	0	next
conjunction	negative	5	Null	hit	F	6554	2	25548176	1	6667	1	0	next
conjunction	negative	1	Null	hit	F	7994	2	25580178	1	8167	1	0	next
conjunction	positive	30	T_green	hit	J	11454	2	25613680	1	11501	1	0	next
conjunction	negative	30	Null	hit	F	12695	2	25650515	1	12834	1	0	next
conjunction	positive	30	T_green	hit	J	8448	2	25688685	1	8501	1	0	next
conjunction	negative	15	Null	hit	F	17496	2	25722520	1	17668	1	0	next
conjunction	negative	15	Null	incorrect	J	12730	2	25765523	1	12834	1	0	next
conjunction	positive	1	T_green	hit	J	8168	2	25803692	1	8334	1	0	next
conjunction	positive	30	T_green	hit	J	18493	2	25837361	1	18668	1	0	next
conjunction	negative	1	Null	hit	F	10654	2	25881364	1	10834	1	0	next
conjunction	negative	30	Null	hit	F	23127	2	25917533	1	23168	1	0	next
conjunction	negative	15	Null	incorrect	J	11585	2	25966036	1	11667	1	0	next
conjunction	positive	5	T_green	hit	J	37464	2	26003038	1	37502	1	0	next
conjunction	positive	15	T_green	hit	J	13665	2	26065875	1	13834	1	0	next
conjunction	negative	5	Null	hit	F	20256	2	26105045	1	20335	1	0	next
conjunction	negative	5	Null	hit	F	17148	2	26150714	1	17334	1	0	next
conjunction	positive	1	T_green	incorrect	F	8721	2	26193384	1	8834	1	0	next
conjunction	positive	1	T_green	hit	J	6550	2	26227553	1	6667	1	0	next
conjunction	negative	5	Null	hit	F	14712	2	26259555	1	14834	1	0	next
conjunction	positive	15	T_green	incorrect	F	13745	2	26299724	1	13834	1	0	next
conjunction	negative	15	Null	hit	F	24658	2	26338893	1	24835	1	0	next
conjunction	negative	5	Null	hit	F	12568	2	26389063	1	12668	1	0	next
conjunction	positive	30	T_green	hit	J	9287	2	26427065	1	9334	1	0	next
conjunction	negative	15	Null	hit	F	12856	2	26461734	1	13001	1	0	next
conjunction	positive	30	T_green	hit	J	9401	2	26500070	1	9501	1	0	next
conjunction	positive	15	T_green	hit	J	10725	2	26534906	1	10834	1	0	next
conjunction	negative	1	Null	hit	F	8961	2	26571075	1	9001	1	0	next
conjunction	negative	1	Null	hit	F	13023	2	26605410	1	13168	1	0	next
conjunction	negative	1	Null	hit	F	11962	2	26643913	1	12001	1	0	next
conjunction	negative	15	Null	hit	F	12547	2	26681248	1	12667	1	0	next
conjunction	positive	30	T_green	hit	J	13906	2	26719251	1	14001	1	0	next
conjunction	positive	5	T_green	hit	J	6571	2	26758587	1	6667	1	0	next
conjunction	positive	15	T_green	hit	J	12493	2	26790589	1	12667	1	0	next
conjunction	negative	15	Null	hit	F	14652	2	26828591	1	14834	1	0	next
conjunction	negative	5	Null	hit	F	10959	2	26868760	1	11001	1	0	next
conjunction	positive	30	T_green	hit	J	9666	2	26905096	1	9834	1	0	next
conjunction	positive	30	T_green	incorrect	F	13698	2	26940265	1	13834	1	0	next
conjunction	negative	15	Null	hit	F	14049	2	26979434	1	14168	1	0	next
conjunction	positive	1	T_green	hit	J	5747	2	27018937	1	5834	1	0	next
conjunction	negative	5	Null	hit	F	14419	2	27050105	1	14501	1	0	next
conjunction	negative	30	Null	hit	F	12024	2	27089941	1	12167	1	0	next
conjunction	positive	5	T_green	hit	J	13086	2	27127444	1	13168	1	0	next
conjunction	negative	30	Null	hit	F	14265	2	27165946	1	14334	1	0	next
conjunction	negative	30	Null	hit	F	14597	2	27205615	1	14668	1	0	next
conjunction	positive	1	T_green	hit	J	6433	2	27245618	1	6500	1	0	next
conjunction	positive	30	T_green	incorrect	F	13483	2	27277453	1	13668	1	0	next
conjunction	positive	5	T_green	hit	J	10801	2	27316456	1	10834	1	0	next
conjunction	negative	30	Null	incorrect	J	14468	2	27352625	1	14501	1	0	next
conjunction	negative	15	Null	hit	F	26477	2	27392461	1	26668	1	0	next
conjunction	positive	5	T_green	hit	J	7751	2	27444464	1	7834	1	0	next
conjunction	positive	5	T_green	hit	J	6102	2	27477633	1	6167	1	0	next
conjunction	negative	30	Null	hit	F	21165	2	27509135	1	21335	1	0	next
conjunction	positive	15	T_green	hit	J	11937	2	27555804	1	12001	1	0	next
conjunction	negative	30	Null	hit	F	22441	2	27593140	1	22501	1	0	next
conjunction	negative	5	Null	hit	F	18922	2	27640977	1	19001	1	0	next
conjunction	negative	1	Null	hit	F	9791	2	27685313	1	9834	1	0	next
conjunction	positive	5	T_green	hit	J	11740	2	27720482	1	11834	1	0	next
conjunction	positive	1	T_green	hit	J	11693	2	27757651	1	11834	1	0	next
conjunction	negative	15	Null	hit	F	12923	2	27794820	1	13001	1	0	next
conjunction	positive	15	T_green	hit	J	8508	2	27833156	1	8667	1	0	next
conjunction	positive	30	T_green	hit	J	12269	2	27867158	1	12334	1	0	next
conjunction	positive	30	T_green	hit	J	6118	2	27904827	1	6167	1	0	next
conjunction	positive	30	T_green	hit	J	6938	2	27936329	1	7000	1	0	next
conjunction	negative	1	Null	hit	F	9006	2	27968664	1	9167	1	0	next
conjunction	positive	30	T_green	hit	J	18661	2	28003166	1	18835	1	0	next
conjunction	positive	5	T_green	hit	J	7454	2	28047336	1	7500	1	0	next
conjunction	negative	1	Null	hit	F	12062	2	28080171	1	12167	1	0	next
conjunction	positive	5	T_green	hit	J	6240	2	28117674	1	6334	1	0	next
conjunction	negative	15	Null	hit	F	15689	2	28149343	1	15834	1	0	next
conjunction	negative	15	Null	hit	F	12921	2	28190512	1	13001	1	0	next
conjunction	negative	15	Null	hit	F	9146	2	28228848	1	9334	1	0	next
conjunction	positive	15	T_green	hit	J	6162	2	28263517	1	6334	1	0	next
conjunction	positive	15	T_green	hit	J	7933	2	28295185	1	8001	1	0	next
conjunction	negative	5	Null	hit	F	14600	2	28328521	1	14668	1	0	next
conjunction	positive	5	T_green	hit	J	10437	2	28368523	1	10501	1	0	next
conjunction	positive	15	T_green	hit	J	7081	2	28404359	1	7167	1	0	next
conjunction	positive	15	T_green	hit	J	7860	2	28436861	1	8001	1	0	next
conjunction	positive	5	T_green	hit	J	6363	2	28470196	1	6500	1	0	next
conjunction	negative	15	Null	hit	F	9732	2	28502032	1	9834	1	0	next
conjunction	positive	5	T_green	hit	J	6401	2	28537201	1	6500	1	0	next
conjunction	positive	30	T_green	hit	J	11687	2	28569036	1	11834	1	0	next
conjunction	positive	5	T_green	hit	J	4598	2	28606205	1	4667	1	0	next
conjunction	positive	15	T_green	hit	J	5316	2	28636207	1	5500	1	0	next
conjunction	negative	30	Null	hit	F	10803	2	28667042	1	10834	1	0	next
conjunction	positive	15	T_green	hit	J	6478	2	28703211	1	6667	1	0	next
conjunction	negative	5	Null	hit	F	9997	2	28735213	1	10167	1	0	next
conjunction	positive	15	T_green	incorrect	F	11294	2	28770716	1	11334	1	0	next
conjunction	positive	5	T_green	hit	J	8544	2	28807385	1	8667	1	0	next
conjunction	positive	15	T_green	hit	J	7182	2	28841387	1	7334	1	0	next
conjunction	positive	30	T_green	hit	J	5715	2	28874056	1	5834	1	0	next
conjunction	positive	1	T_green	hit	J	10232	2	28905224	1	10334	1	0	next
conjunction	positive	1	T_green	hit	J	6558	2	28940893	1	6667	1	0	next
conjunction	negative	5	Null	hit	F	9280	2	28972895	1	9334	1	0	next
conjunction	negative	30	Null	incorrect	J	31253	2	29007564	1	31335	1	0	next
conjunction	negative	5	Null	hit	F	17786	2	29064235	1	17834	1	0	next
conjunction	positive	1	T_green	incorrect	F	8052	2	29107404	1	8167	1	0	next
conjunction	positive	1	T_green	hit	J	10395	2	29140906	1	10501	1	0	next
conjunction	positive	1	T_green	hit	J	7516	2	29176742	1	7667	1	0	next
conjunction	negative	30	Null	hit	F	15479	2	29209744	1	15668	1	0	next
conjunction	positive	1	T_green	hit	J	12873	2	29250747	1	13001	1	0	next
conjunction	positive	1	T_green	hit	J	5738	2	29289082	1	5834	1	0	next
conjunction	negative	30	Null	hit	F	9291	2	29320251	1	9334	1	0	next
conjunction	negative	30	Null	hit	F	14148	2	29354920	1	14334	1	0	next
conjunction	negative	30	Null	hit	F	10155	2	29394589	1	10334	1	0	next
conjunction	positive	1	T_green	hit	J	6647	2	29430258	1	6834	1	0	next
conjunction	positive	1	T_green	hit	J	4721	2	29462427	1	4834	1	0	next
conjunction	negative	5	Null	hit	F	9596	2	29492595	1	9667	1	0	next
conjunction	negative	30	Null	hit	F	13471	2	29527598	1	13668	1	0	next
conjunction	negative	1	Null	hit	F	10952	2	29566600	1	11001	1	0	next
conjunction	positive	1	T_green	hit	J	11097	2	29602936	1	11167	1	0	next
conjunction	negative	1	Null	hit	F	12031	2	29639438	1	12167	1	0	next
conjunction	negative	1	Null	hit	F	13254	2	29676941	1	13334	1	0	next
conjunction	negative	1	Null	hit	F	12023	2	29715610	1	12167	1	0	next
conjunction	negative	1	Null	hit	F	7325	2	29753112	1	7500	1	0	next
