Target_Type	Trial_Type	Display_Size	Target	Response	Key_press	RT	Uncertainty	Time	Uncertainty	Duration	Uncertainty	ReqTime	ReqDur
disjunction	positive	15	X_blue	incorrect	F	12871	2	61367	1	13001	1	0	next
disjunction	positive	5	S_brown	hit	J	10214	2	99703	1	10334	1	0	next
disjunction	positive	30	T_blue	hit	J	15344	2	135372	1	15501	1	0	next
disjunction	negative	30	Null	hit	F	14991	2	176208	1	15168	1	0	next
disjunction	negative	5	Null	hit	F	9688	2	216710	1	9834	1	0	next
disjunction	negative	5	Null	hit	F	5880	2	251879	1	6000	1	0	next
disjunction	negative	15	Null	hit	F	8628	2	283215	1	8834	1	0	next
disjunction	negative	15	Null	hit	F	7903	2	317384	1	8001	1	0	next
disjunction	positive	30	T_blue	hit	J	6722	2	350719	1	6834	1	0	next
disjunction	negative	5	Null	hit	F	6235	2	382888	1	6334	1	0	next
disjunction	positive	30	S_green	hit	J	8646	2	414557	1	8834	1	0	next
disjunction	negative	1	Null	hit	F	6323	2	448725	1	6500	1	0	next
disjunction	positive	1	X_blue	hit	J	4408	2	480561	1	4500	1	0	next
disjunction	positive	15	T_blue	hit	J	5930	2	510396	1	6000	1	0	next
disjunction	negative	15	Null	hit	F	5955	2	541731	1	6000	1	0	next
disjunction	positive	15	S_brown	hit	J	6942	2	573067	1	7000	1	0	next
disjunction	negative	5	Null	hit	F	6289	2	605402	1	6334	1	0	next
disjunction	negative	15	Null	hit	F	7899	2	637071	1	8001	1	0	next
disjunction	negative	15	Null	hit	F	7844	2	670406	1	8001	1	0	next
disjunction	negative	15	Null	hit	F	7153	2	703742	1	7334	1	0	next
disjunction	negative	15	Null	hit	F	8722	2	736411	1	8834	1	0	next
disjunction	positive	30	T_blue	hit	J	6073	2	770579	1	6167	1	0	next
disjunction	positive	1	T_blue	hit	J	4656	2	802081	1	4834	1	0	next
disjunction	positive	5	X_blue	hit	J	6006	2	832250	1	6167	1	0	next
disjunction	negative	5	Null	hit	F	8109	2	863752	1	8167	1	0	next
disjunction	positive	1	S_green	hit	J	4681	2	897254	1	4834	1	0	next
disjunction	negative	5	Null	hit	F	5078	2	927423	1	5167	1	0	next
disjunction	negative	1	Null	hit	F	7532	2	957925	1	7667	1	0	next
disjunction	negative	5	Null	hit	F	8292	2	990927	1	8334	1	0	next
disjunction	negative	5	Null	hit	F	6943	2	1024596	1	7000	1	0	next
disjunction	negative	5	Null	hit	F	5489	2	1056931	1	5667	1	0	next
disjunction	positive	1	S_green	hit	J	4088	2	1087933	1	4167	1	0	next
disjunction	positive	1	S_green	incorrect	F	4829	2	1117435	1	5000	1	0	next
disjunction	positive	5	X_blue	hit	J	6173	2	1147770	1	6334	1	0	next
disjunction	negative	1	Null	hit	F	6670	2	1179439	1	6834	1	0	next
disjunction	positive	1	S_green	hit	J	4416	2	1211608	1	4500	1	0	next
disjunction	negative	1	Null	hit	F	7224	2	1241443	1	7334	1	0	next
disjunction	positive	30	X_blue	hit	J	5915	2	1274112	1	6000	1	0	next
disjunction	positive	5	S_green	hit	J	9143	2	1305447	1	9334	1	0	next
disjunction	negative	5	Null	hit	F	5992	2	1340116	1	6167	1	0	next
disjunction	positive	15	S_green	hit	J	8251	2	1371618	1	8334	1	0	next
disjunction	positive	15	T_blue	hit	J	5462	2	1405287	1	5500	1	0	next
disjunction	negative	30	Null	hit	F	9507	2	1436122	1	9667	1	0	next
disjunction	negative	5	Null	hit	F	10506	2	1471124	1	10667	1	0	next
disjunction	negative	15	Null	hit	F	7464	2	1507127	1	7500	1	0	next
disjunction	negative	1	Null	hit	F	7595	2	1539962	1	7667	1	0	next
disjunction	negative	15	Null	hit	F	6108	2	1572964	1	6167	1	0	next
disjunction	negative	5	Null	hit	F	5332	2	1604466	1	5500	1	0	next
disjunction	negative	5	Null	hit	F	5533	2	1635302	1	5667	1	0	next
disjunction	positive	30	S_green	hit	J	8932	2	1666304	1	9001	1	0	next
disjunction	positive	15	S_green	incorrect	F	8517	2	1700639	1	8667	1	0	next
disjunction	negative	5	Null	hit	F	5882	2	1734641	1	6000	1	0	next
disjunction	positive	5	S_brown	hit	J	7182	2	1765977	1	7334	1	0	next
disjunction	positive	30	S_brown	hit	J	4753	2	1798645	1	4834	1	0	next
disjunction	positive	1	S_green	hit	J	4986	2	1828814	1	5167	1	0	next
disjunction	positive	15	S_brown	hit	J	8249	2	1859316	1	8334	1	0	next
disjunction	positive	30	S_brown	hit	J	5777	2	1892985	1	5834	1	0	next
disjunction	negative	5	Null	hit	F	9494	2	1924153	1	9667	1	0	next
disjunction	positive	15	S_brown	hit	J	5208	2	1959156	1	5334	1	0	next
disjunction	negative	5	Null	hit	F	7179	2	1989824	1	7334	1	0	next
disjunction	negative	1	Null	hit	F	4595	2	2022493	1	4667	1	0	next
disjunction	negative	1	Null	hit	F	4833	2	2052495	1	5000	1	0	next
disjunction	positive	1	X_blue	incorrect	F	6336	2	2082830	1	6500	1	0	next
disjunction	positive	1	X_blue	incorrect	F	5063	2	2114666	1	5167	1	0	next
disjunction	positive	15	S_brown	hit	J	6081	2	2145168	1	6167	1	0	next
disjunction	negative	15	Null	hit	F	8660	2	2176670	1	8834	1	0	next
disjunction	positive	15	X_blue	hit	J	7451	2	2210838	1	7500	1	0	next
disjunction	positive	5	S_brown	hit	J	5496	2	2243674	1	5667	1	0	next
disjunction	positive	1	X_blue	hit	J	4574	2	2274676	1	4667	1	0	next
disjunction	negative	30	Null	hit	F	7057	2	2304678	1	7167	1	0	next
disjunction	negative	15	Null	hit	F	10233	2	2337180	1	10334	1	0	next
disjunction	positive	5	S_brown	hit	J	5131	2	2372849	1	5167	1	0	next
disjunction	positive	30	T_blue	hit	J	7743	2	2403351	1	7834	1	0	next
disjunction	positive	1	T_blue	hit	J	4335	2	2436520	1	4500	1	0	next
disjunction	positive	5	S_brown	hit	J	5221	2	2466355	1	5334	1	0	next
disjunction	positive	5	S_green	hit	J	4793	2	2497023	1	4834	1	0	next
disjunction	positive	30	S_green	hit	J	5827	2	2527192	1	6000	1	0	next
disjunction	negative	15	Null	hit	F	11774	2	2558527	1	11834	1	0	next
disjunction	positive	1	T_blue	incorrect	F	6766	2	2595696	1	6834	1	0	next
disjunction	negative	30	Null	hit	F	9154	2	2627865	1	9334	1	0	next
disjunction	negative	30	Null	hit	F	8406	2	2662534	1	8501	1	0	next
disjunction	negative	30	Null	hit	F	4973	2	2696370	1	5167	1	0	next
disjunction	positive	1	S_green	hit	J	5991	2	2726872	1	6167	1	0	next
disjunction	positive	15	T_blue	hit	J	6973	2	2758374	1	7167	1	0	next
disjunction	positive	30	T_blue	hit	J	5348	2	2790876	1	5500	1	0	next
disjunction	negative	15	Null	hit	F	6033	2	2821711	1	6167	1	0	next
disjunction	negative	15	Null	hit	F	8133	2	2853213	1	8167	1	0	next
disjunction	negative	30	Null	hit	F	6951	2	2886715	1	7000	1	0	next
disjunction	positive	15	S_brown	hit	J	5818	2	2919051	1	6000	1	0	next
disjunction	negative	30	Null	hit	F	8722	2	2950386	1	8834	1	0	next
disjunction	positive	5	S_green	hit	J	4475	2	2984555	1	4667	1	0	next
disjunction	positive	5	X_blue	hit	J	5033	2	3014557	1	5167	1	0	next
disjunction	positive	15	X_blue	hit	J	6692	2	3045059	1	6834	1	0	next
disjunction	negative	30	Null	hit	F	9085	2	3077227	1	9167	1	0	next
disjunction	negative	15	Null	hit	F	7063	2	3111730	1	7167	1	0	next
disjunction	positive	15	S_brown	hit	J	6402	2	3144232	1	6500	1	0	next
disjunction	negative	1	Null	incorrect	J	5926	2	3176067	1	6000	1	0	next
disjunction	negative	15	Null	hit	F	7396	2	3207402	1	7501	1	0	next
disjunction	positive	1	S_brown	hit	J	4482	2	3240238	1	4667	1	0	next
disjunction	negative	1	Null	hit	F	7445	2	3270240	1	7500	1	0	next
disjunction	negative	1	Null	hit	F	5961	2	3303075	1	6000	1	0	next
disjunction	positive	5	T_blue	hit	J	5507	2	3334411	1	5667	1	0	next
disjunction	positive	15	T_blue	hit	J	5226	2	3365413	1	5334	1	0	next
disjunction	positive	30	T_blue	hit	J	5285	2	3396081	1	5334	1	0	next
disjunction	negative	30	Null	hit	F	6291	2	3426750	1	6334	1	0	next
disjunction	negative	30	Null	hit	F	8546	2	3458419	1	8667	1	0	next
disjunction	negative	1	Null	hit	F	7181	2	3492421	1	7334	1	0	next
disjunction	positive	30	T_blue	hit	J	5074	2	3525089	1	5167	1	0	next
disjunction	negative	1	Null	hit	F	4662	2	3555591	1	4834	1	0	next
disjunction	positive	30	T_blue	hit	J	4564	2	3585760	1	4667	1	0	next
disjunction	negative	30	Null	hit	F	6084	2	3615762	1	6167	1	0	next
disjunction	positive	5	S_brown	incorrect	F	6422	2	3647264	1	6500	1	0	next
disjunction	negative	1	Null	hit	F	4347	2	3679099	1	4500	1	0	next
disjunction	negative	1	Null	hit	F	4912	2	3708935	1	5000	1	0	next
disjunction	positive	5	S_green	hit	J	5461	2	3739270	1	5500	1	0	next
disjunction	positive	30	S_green	hit	J	4550	2	3770105	1	4667	1	0	next
disjunction	negative	1	Null	hit	F	5105	2	3800107	1	5167	1	0	next
disjunction	positive	1	X_blue	hit	J	4521	2	3830609	1	4667	1	0	next
disjunction	negative	1	Null	hit	F	4922	2	3860611	1	5000	1	0	next
disjunction	negative	30	Null	hit	F	10585	2	3890946	1	10667	1	0	next
disjunction	positive	30	X_blue	hit	J	4663	2	3926949	1	4834	1	0	next
disjunction	positive	5	S_brown	hit	J	6016	2	3957117	1	6167	1	0	next
disjunction	negative	30	Null	hit	F	7155	2	3988619	1	7334	1	0	next
disjunction	negative	30	Null	hit	F	6811	2	4021288	1	7000	1	0	next
disjunction	negative	30	Null	hit	F	6953	2	4053623	1	7000	1	0	next
disjunction	positive	5	X_blue	hit	J	6301	2	4085959	1	6500	1	0	next
disjunction	positive	1	X_blue	hit	J	5503	2	4117794	1	5667	1	0	next
disjunction	positive	15	X_blue	hit	J	4423	2	4148796	1	4500	1	0	next
conjunction	positive	5	T_green	incorrect	F	6948	2	4613326	1	7000	1	0	next
conjunction	negative	5	Null	hit	F	6612	2	4645661	1	6667	1	0	next
conjunction	positive	1	T_green	incorrect	F	4687	2	4677663	1	4834	1	0	next
conjunction	positive	5	T_green	hit	J	5241	2	4707832	1	5334	1	0	next
conjunction	negative	1	Null	hit	F	7053	2	4738501	1	7167	1	0	next
conjunction	positive	15	T_green	hit	J	7673	2	4771003	1	7834	1	0	next
conjunction	negative	1	Null	hit	F	5224	2	4804172	1	5334	1	0	next
conjunction	negative	5	Null	hit	F	6237	2	4834840	1	6334	1	0	next
conjunction	positive	30	T_green	incorrect	F	7372	2	4866509	1	7500	1	0	next
conjunction	negative	30	Null	hit	F	10852	2	4899344	1	11001	1	0	next
conjunction	negative	30	Null	hit	F	6998	2	4935680	1	7167	1	0	next
conjunction	negative	15	Null	hit	F	6496	2	4968182	1	6667	1	0	next
conjunction	positive	30	T_green	incorrect	F	9055	2	5000184	1	9167	1	0	next
conjunction	positive	1	T_green	hit	J	7035	2	5034686	1	7167	1	0	next
conjunction	positive	1	T_green	hit	J	3816	2	5067188	1	4000	1	0	next
conjunction	positive	15	T_green	hit	J	10641	2	5096524	1	10834	1	0	next
conjunction	negative	15	Null	hit	F	9834	2	5132693	1	10001	1	0	next
conjunction	negative	1	Null	hit	F	5375	2	5168028	1	5500	1	0	next
conjunction	negative	1	Null	hit	F	4631	2	5198864	1	4667	1	0	next
conjunction	negative	30	Null	hit	F	13981	2	5228866	1	14168	1	0	next
conjunction	positive	5	T_green	hit	J	9358	2	5268368	1	9501	1	0	next
conjunction	positive	1	T_green	hit	J	3965	2	5303204	1	4000	1	0	next
conjunction	negative	15	Null	hit	F	10471	2	5332539	1	10667	1	0	next
conjunction	negative	15	Null	hit	F	7588	2	5368541	1	7667	1	0	next
conjunction	negative	15	Null	hit	F	10746	2	5401543	1	10834	1	0	next
conjunction	positive	15	T_green	hit	J	6420	2	5437712	1	6500	1	0	next
conjunction	positive	30	T_green	incorrect	F	8505	2	5469548	1	8667	1	0	next
conjunction	negative	15	Null	hit	F	7464	2	5503550	1	7501	1	0	next
conjunction	positive	1	T_green	hit	J	4871	2	5536385	1	5000	1	0	next
conjunction	positive	30	T_green	hit	J	7655	2	5566721	1	7834	1	0	next
conjunction	positive	1	T_green	hit	J	3926	2	5599889	1	4000	1	0	next
conjunction	positive	1	T_green	hit	J	4191	2	5629225	1	4334	1	0	next
conjunction	negative	15	Null	incorrect	J	6845	2	5658893	1	7000	1	0	next
conjunction	positive	1	T_green	hit	J	4108	2	5691229	1	4167	1	0	next
conjunction	positive	15	T_green	incorrect	F	9808	2	5720730	1	10001	1	0	next
conjunction	positive	1	T_green	hit	J	3913	2	5756066	1	4000	1	0	next
conjunction	positive	5	T_green	hit	J	8500	2	5785401	1	8667	1	0	next
conjunction	negative	5	Null	hit	F	7138	2	5819403	1	7167	1	0	next
conjunction	positive	30	T_green	hit	J	15277	2	5851906	1	15334	1	0	next
conjunction	negative	1	Null	hit	F	5332	2	5892575	1	5500	1	0	next
conjunction	positive	30	T_green	incorrect	F	13056	2	5923410	1	13168	1	0	next
conjunction	negative	30	Null	hit	F	21753	2	5961913	1	21835	1	0	next
conjunction	negative	5	Null	hit	F	12826	2	6009082	1	13001	1	0	next
conjunction	negative	15	Null	hit	F	10650	2	6047418	1	10834	1	0	next
conjunction	positive	1	T_green	hit	J	4880	2	6083587	1	5000	1	0	next
conjunction	negative	5	Null	hit	F	6069	2	6113922	1	6167	1	0	next
conjunction	negative	15	Null	hit	F	6565	2	6145424	1	6667	1	0	next
conjunction	negative	15	Null	hit	F	6884	2	6177426	1	7000	1	0	next
conjunction	positive	1	T_green	hit	J	3993	2	6209762	1	4167	1	0	next
conjunction	negative	1	Null	hit	F	5049	2	6239264	1	5167	1	0	next
conjunction	negative	5	Null	hit	F	5427	2	6269766	1	5500	1	0	next
conjunction	negative	15	Null	hit	F	6114	2	6300601	1	6167	1	0	next
conjunction	negative	5	Null	hit	F	4851	2	6332103	1	5000	1	0	next
conjunction	positive	5	T_green	hit	J	5716	2	6362438	1	5834	1	0	next
conjunction	negative	30	Null	hit	F	14549	2	6393607	1	14668	1	0	next
conjunction	negative	5	Null	hit	F	7027	2	6433610	1	7167	1	0	next
conjunction	negative	1	Null	hit	F	5566	2	6466112	1	5667	1	0	next
conjunction	negative	5	Null	hit	F	7524	2	6497114	1	7667	1	0	next
conjunction	positive	1	T_green	hit	J	4283	2	6530116	1	4334	1	0	next
conjunction	negative	15	Null	hit	F	6618	2	6559784	1	6667	1	0	next
conjunction	positive	1	T_green	hit	J	3735	2	6591786	1	3834	1	0	next
conjunction	positive	30	T_green	incorrect	F	11686	2	6620955	1	11834	1	0	next
conjunction	positive	15	T_green	incorrect	F	11804	2	6658124	1	12001	1	0	next
conjunction	negative	5	Null	hit	F	8544	2	6695460	1	8667	1	0	next
conjunction	negative	15	Null	hit	F	14063	2	6729462	1	14168	1	0	next
conjunction	negative	5	Null	hit	F	7361	2	6768964	1	7500	1	0	next
conjunction	positive	15	T_green	hit	J	10685	2	6801800	1	10834	1	0	next
conjunction	positive	30	T_green	incorrect	F	19322	2	6837969	1	19501	1	0	next
conjunction	negative	1	Null	hit	F	7444	2	6882805	1	7500	1	0	next
conjunction	positive	15	T_green	hit	J	8690	2	6915640	1	8834	1	0	next
conjunction	negative	5	Null	hit	F	6681	2	6949809	1	6834	1	0	next
conjunction	negative	1	Null	hit	F	5872	2	6981978	1	6000	1	0	next
conjunction	positive	30	T_green	hit	J	16777	2	7013313	1	16834	1	0	next
conjunction	positive	30	T_green	incorrect	F	14450	2	7055483	1	14501	1	0	next
conjunction	positive	5	T_green	incorrect	F	5657	2	7095319	1	5834	1	0	next
conjunction	positive	30	T_green	hit	J	7611	2	7126487	1	7667	1	0	next
conjunction	negative	30	Null	hit	F	15566	2	7159489	1	15668	1	0	next
conjunction	positive	30	T_green	hit	J	18405	2	7200492	1	18501	1	0	next
conjunction	negative	1	Null	hit	F	6730	2	7244328	1	6834	1	0	next
conjunction	negative	1	Null	hit	F	5120	2	7276497	1	5167	1	0	next
conjunction	negative	15	Null	hit	F	11740	2	7306999	1	11834	1	0	next
conjunction	positive	1	T_green	incorrect	F	4812	2	7344168	1	5000	1	0	next
conjunction	negative	30	Null	hit	F	17517	2	7374503	1	17668	1	0	next
conjunction	positive	30	T_green	incorrect	F	9720	2	7417506	1	9834	1	0	next
conjunction	negative	5	Null	hit	F	9588	2	7452675	1	9667	1	0	next
conjunction	positive	15	T_green	incorrect	F	8506	2	7487677	1	8667	1	0	next
conjunction	negative	15	Null	hit	F	13865	2	7521679	1	14001	1	0	next
conjunction	negative	1	Null	hit	F	4770	2	7561015	1	4834	1	0	next
conjunction	negative	1	Null	hit	F	4202	2	7591184	1	4334	1	0	next
conjunction	positive	30	T_green	incorrect	F	15828	2	7620852	1	16001	1	0	next
conjunction	positive	1	T_green	hit	J	5039	2	7662188	1	5167	1	0	next
conjunction	positive	30	T_green	incorrect	F	11178	2	7692690	1	11334	1	0	next
conjunction	positive	1	T_green	hit	J	4273	2	7729359	1	4334	1	0	next
conjunction	negative	30	Null	hit	F	14122	2	7759028	1	14168	1	0	next
conjunction	positive	15	T_green	hit	J	9181	2	7798530	1	9334	1	0	next
conjunction	positive	5	T_green	incorrect	F	6994	2	7833199	1	7167	1	0	next
conjunction	negative	5	Null	hit	F	6172	2	7865701	1	6334	1	0	next
conjunction	positive	30	T_green	incorrect	F	15623	2	7897370	1	15668	1	0	next
conjunction	positive	15	T_green	incorrect	F	13502	2	7938373	1	13668	1	0	next
conjunction	positive	5	T_green	incorrect	F	6020	2	7977375	1	6167	1	0	next
conjunction	positive	15	T_green	hit	J	7159	2	8008877	1	7334	1	0	next
conjunction	positive	5	T_green	hit	J	6333	2	8041546	1	6500	1	0	next
conjunction	negative	30	Null	hit	F	27137	2	8073381	1	27168	1	0	next
conjunction	positive	15	T_green	hit	J	12715	2	8125885	1	12834	1	0	next
conjunction	positive	5	T_green	incorrect	F	9907	2	8164054	1	10001	1	0	next
conjunction	negative	15	Null	hit	F	12493	2	8199390	1	12668	1	0	next
conjunction	positive	5	T_green	hit	J	5051	2	8237392	1	5167	1	0	next
conjunction	positive	5	T_green	hit	J	5435	2	8267894	1	5500	1	0	next
conjunction	positive	5	T_green	hit	J	8196	2	8298729	1	8334	1	0	next
conjunction	negative	5	Null	hit	F	11168	2	8332398	1	11334	1	0	next
conjunction	negative	1	Null	hit	F	5863	2	8369067	1	6000	1	0	next
conjunction	negative	30	Null	hit	F	24450	2	8400402	1	24502	1	0	next
conjunction	negative	1	Null	hit	F	5489	2	8450239	1	5667	1	0	next
conjunction	negative	1	Null	hit	F	5207	2	8481241	1	5334	1	0	next
conjunction	negative	30	Null	hit	F	23020	2	8511910	1	23168	1	0	next
conjunction	positive	5	T_green	hit	J	7640	2	8560413	1	7834	1	0	next
conjunction	negative	5	Null	hit	F	8233	2	8593581	1	8334	1	0	next
conjunction	negative	30	Null	hit	F	22881	2	8627250	1	23001	1	0	next
conjunction	negative	30	Null	hit	F	14227	2	8675587	1	14334	1	0	next
conjunction	negative	30	Null	hit	F	23040	2	8715256	1	23168	1	0	next
conjunction	negative	30	Null	hit	F	19496	2	8763759	1	19668	1	0	next
conjunction	positive	15	T_green	hit	J	7781	2	8808762	1	7834	1	0	next
conjunction	positive	5	T_green	hit	J	4687	2	8841931	1	4834	1	0	next
conjunction	negative	30	Null	hit	F	22843	2	8872099	1	23002	1	0	next
conjunction	positive	5	T_green	hit	J	7944	2	8920436	1	8001	1	0	next
conjunction	positive	15	T_green	hit	J	10929	2	8953771	1	11001	1	0	next
conjunction	positive	15	T_green	hit	J	6280	2	8990107	1	6334	1	0	next
conjunction	positive	15	T_green	hit	J	10611	2	9021776	1	10667	1	0	next
conjunction	positive	1	T_green	hit	J	6918	2	9577478	1	7000	1	0	next
conjunction	negative	15	Null	hit	F	14423	2	9609813	1	14501	1	0	next
conjunction	positive	5	T_green	hit	J	4988	2	9649649	1	5167	1	0	next
conjunction	negative	15	Null	hit	F	12248	2	9680151	1	12334	1	0	next
conjunction	negative	5	Null	hit	F	5939	2	9717820	1	6000	1	0	next
conjunction	positive	1	T_green	hit	J	4524	2	9749156	1	4667	1	0	next
conjunction	negative	1	Null	hit	F	6204	2	9779158	1	6334	1	0	next
conjunction	positive	5	T_green	hit	J	10216	2	9810826	1	10334	1	0	next
conjunction	negative	1	Null	hit	F	5591	2	9846495	1	5667	1	0	next
conjunction	positive	1	T_green	hit	J	4507	2	9877497	1	4667	1	0	next
conjunction	positive	15	T_green	hit	J	14185	2	9907499	1	14334	1	0	next
conjunction	negative	15	Null	hit	F	15157	2	9947168	1	15334	1	0	next
conjunction	positive	1	T_green	hit	J	4410	2	9987838	1	4500	1	0	next
conjunction	positive	30	T_green	incorrect	F	12975	2	10017673	1	13168	1	0	next
conjunction	negative	5	Null	hit	F	10474	2	10056175	1	10667	1	0	next
conjunction	positive	5	T_green	hit	J	4872	2	10092178	1	5000	1	0	next
conjunction	negative	15	Null	hit	F	17099	2	10122513	1	17168	1	0	next
conjunction	positive	15	T_green	hit	J	8516	2	10165016	1	8667	1	0	next
conjunction	positive	15	T_green	incorrect	F	14675	2	10199018	1	14834	1	0	next
conjunction	negative	30	Null	hit	F	36427	2	10239187	1	36502	1	0	next
conjunction	negative	30	Null	hit	F	17630	2	10301024	1	17668	1	0	next
conjunction	negative	15	Null	hit	F	14630	2	10344027	1	14834	1	0	next
conjunction	positive	5	T_green	hit	J	7104	2	10384196	1	7167	1	0	next
conjunction	negative	15	Null	hit	F	14922	2	10416698	1	15001	1	0	next
conjunction	negative	5	Null	hit	F	7063	2	10457034	1	7167	1	0	next
conjunction	positive	1	T_green	hit	J	4484	2	10489537	1	4667	1	0	next
conjunction	negative	1	Null	hit	F	5681	2	10519538	1	5834	1	0	next
conjunction	positive	30	T_green	incorrect	F	17875	2	10550707	1	18001	1	0	next
conjunction	negative	30	Null	hit	F	23501	2	10594043	1	23668	1	0	next
conjunction	positive	30	T_green	hit	J	15458	2	10643046	1	15501	1	0	next
conjunction	negative	1	Null	hit	F	6302	2	10683882	1	6334	1	0	next
conjunction	positive	15	T_green	hit	J	10637	2	10715551	1	10667	1	0	next
conjunction	positive	15	T_green	hit	J	12232	2	10751553	1	12334	1	0	next
conjunction	negative	1	Null	hit	F	4965	2	10789222	1	5000	1	0	next
conjunction	negative	1	Null	hit	F	5349	2	10819558	1	5500	1	0	next
conjunction	positive	5	T_green	hit	J	5240	2	10850393	1	5334	1	0	next
conjunction	positive	30	T_green	incorrect	F	14087	2	10881062	1	14168	1	0	next
conjunction	positive	30	T_green	incorrect	F	19387	2	10920564	1	19501	1	0	next
conjunction	positive	1	T_green	hit	J	4952	2	10965400	1	5000	1	0	next
conjunction	negative	15	Null	hit	F	10141	2	10995736	1	10334	1	0	next
conjunction	positive	15	T_green	hit	J	9834	2	11031405	1	10001	1	0	next
conjunction	negative	1	Null	hit	F	5853	2	11066740	1	6000	1	0	next
conjunction	negative	1	Null	incorrect	J	4440	2	11098076	1	4500	1	0	next
conjunction	negative	15	Null	hit	F	11565	2	11127911	1	11667	1	0	next
conjunction	negative	5	Null	hit	F	8322	2	11164913	1	8501	1	0	next
conjunction	negative	30	Null	hit	F	21688	2	11198749	1	21835	1	0	next
conjunction	negative	5	Null	hit	F	6200	2	11245918	1	6334	1	0	next
conjunction	positive	5	T_green	hit	J	5414	2	11277587	1	5500	1	0	next
conjunction	positive	1	T_green	hit	J	3858	2	11308422	1	4000	1	0	next
conjunction	positive	30	T_green	incorrect	F	16125	2	11337758	1	16168	1	0	next
conjunction	negative	30	Null	hit	F	18303	2	11379260	1	18501	1	0	next
conjunction	positive	15	T_green	hit	J	11110	2	11423096	1	11167	1	0	next
conjunction	negative	15	Null	hit	F	12365	2	11459599	1	12501	1	0	next
conjunction	negative	5	Null	hit	F	6690	2	11497435	1	6834	1	0	next
conjunction	positive	30	T_green	hit	J	6523	2	11529603	1	6667	1	0	next
conjunction	negative	1	Null	hit	F	4762	2	11561605	1	4834	1	0	next
conjunction	positive	15	T_green	hit	J	4995	2	11591774	1	5167	1	0	next
conjunction	positive	1	T_green	hit	J	3939	2	11622276	1	4000	1	0	next
conjunction	negative	30	Null	hit	F	8517	2	11651611	1	8667	1	0	next
conjunction	positive	30	T_green	hit	J	11157	2	11685613	1	11334	1	0	next
conjunction	positive	1	T_green	hit	J	4408	2	11722282	1	4500	1	0	next
conjunction	negative	1	Null	hit	F	4813	2	11752118	1	5000	1	0	next
conjunction	positive	5	T_green	hit	J	7440	2	11782453	1	7500	1	0	next
conjunction	negative	5	Null	hit	F	9168	2	11815288	1	9334	1	0	next
conjunction	negative	1	Null	hit	F	5376	2	11849957	1	5500	1	0	next
conjunction	negative	30	Null	hit	F	13104	2	11880792	1	13168	1	0	next
conjunction	negative	5	Null	hit	F	8520	2	11919295	1	8667	1	0	next
conjunction	negative	30	Null	hit	F	18039	2	11953297	1	18168	1	0	next
conjunction	positive	1	T_green	hit	J	4138	2	11996800	1	4167	1	0	next
conjunction	negative	5	Null	hit	F	6477	2	12026302	1	6667	1	0	next
conjunction	negative	15	Null	hit	F	10156	2	12058304	1	10334	1	0	next
conjunction	positive	5	T_green	hit	J	4728	2	12093973	1	4834	1	0	next
conjunction	positive	1	T_green	hit	J	3679	2	12124141	1	3834	1	0	next
conjunction	positive	30	T_green	hit	J	5716	2	12153310	1	5834	1	0	next
conjunction	positive	30	T_green	hit	J	14544	2	12184479	1	14668	1	0	next
conjunction	positive	5	T_green	hit	J	5902	2	12224481	1	6000	1	0	next
conjunction	positive	15	T_green	hit	J	5288	2	12255817	1	5334	1	0	next
conjunction	negative	1	Null	hit	F	5821	2	12286485	1	6000	1	0	next
conjunction	negative	5	Null	hit	F	6165	2	12317821	1	6334	1	0	next
conjunction	positive	1	T_green	hit	J	5218	2	12349489	1	5334	1	0	next
conjunction	negative	5	Null	hit	F	6388	2	12380158	1	6500	1	0	next
conjunction	negative	15	Null	hit	F	7835	2	12411993	1	8000	1	0	next
conjunction	positive	30	T_green	hit	J	10981	2	12445329	1	11167	1	0	next
conjunction	positive	15	T_green	hit	J	10801	2	12481831	1	11001	1	0	next
conjunction	positive	1	T_green	hit	J	5825	2	12518167	1	6000	1	0	next
conjunction	positive	1	T_green	hit	J	3929	2	12549502	1	4000	1	0	next
conjunction	positive	15	T_green	hit	J	8516	2	12578837	1	8667	1	0	next
conjunction	negative	15	Null	hit	F	12275	2	12612839	1	12334	1	0	next
conjunction	positive	15	T_green	incorrect	F	9492	2	12650509	1	9667	1	0	next
conjunction	negative	1	Null	hit	F	5206	2	12685511	1	5334	1	0	next
conjunction	positive	15	T_green	hit	J	5897	2	12716179	1	6000	1	0	next
conjunction	positive	5	T_green	hit	J	6082	2	12747515	1	6167	1	0	next
conjunction	positive	1	T_green	hit	J	4340	2	12779017	1	4500	1	0	next
conjunction	negative	5	Null	hit	F	7469	2	12808852	1	7500	1	0	next
conjunction	negative	30	Null	hit	F	8552	2	12841687	1	8667	1	0	next
conjunction	positive	30	T_green	hit	J	8314	2	12875690	1	8501	1	0	next
conjunction	negative	30	Null	hit	F	11596	2	12909525	1	11667	1	0	next
conjunction	positive	15	T_green	hit	J	5954	2	12946528	1	6000	1	0	next
conjunction	positive	30	T_green	hit	J	12700	2	12977863	1	12834	1	0	next
conjunction	positive	30	T_green	hit	J	6053	2	13016032	1	6167	1	0	next
conjunction	positive	15	T_green	hit	J	4630	2	13047534	1	4667	1	0	next
conjunction	positive	1	T_green	hit	J	4231	2	13077536	1	4334	1	0	next
conjunction	negative	15	Null	hit	F	11682	2	13107205	1	11834	1	0	next
conjunction	negative	30	Null	hit	F	19953	2	13144374	1	20001	1	0	next
conjunction	positive	5	T_green	hit	J	4377	2	13189710	1	4500	1	0	next
conjunction	positive	15	T_green	hit	J	4944	2	13219545	1	5000	1	0	next
conjunction	negative	30	Null	incorrect	J	18134	2	13249880	1	18168	1	0	next
conjunction	negative	5	Null	hit	F	7907	2	13293383	1	8001	1	0	next
conjunction	negative	1	Null	hit	F	7055	2	13326719	1	7167	1	0	next
conjunction	negative	1	Null	hit	F	6398	2	13359221	1	6500	1	0	next
conjunction	positive	30	T_green	hit	J	5602	2	13391056	1	5667	1	0	next
conjunction	positive	5	T_green	hit	J	5961	2	13422058	1	6000	1	0	next
conjunction	negative	1	Null	hit	F	4861	2	13453393	1	5000	1	0	next
conjunction	positive	30	T_green	hit	J	9248	2	13483729	1	9334	1	0	next
conjunction	positive	5	T_green	hit	J	9302	2	13518398	1	9334	1	0	next
conjunction	positive	5	T_green	hit	J	4551	2	13553066	1	4667	1	0	next
conjunction	positive	5	T_green	hit	J	8152	2	13583068	1	8334	1	0	next
conjunction	negative	15	Null	hit	F	14003	2	13616737	1	14168	1	0	next
conjunction	positive	5	T_green	hit	J	4420	2	13656240	1	4500	1	0	next
conjunction	negative	15	Null	hit	F	13946	2	13686075	1	14001	1	0	next
conjunction	negative	30	Null	hit	F	17971	2	13725411	1	18168	1	0	next
conjunction	negative	15	Null	hit	F	9349	2	13768914	1	9501	1	0	next
conjunction	negative	30	Null	hit	F	6996	2	13803749	1	7167	1	0	next
conjunction	negative	5	Null	hit	F	5854	2	13836251	1	6000	1	0	next
conjunction	negative	5	Null	hit	F	4919	2	13867587	1	5000	1	0	next
conjunction	negative	30	Null	hit	F	11705	2	13897922	1	11834	1	0	next
conjunction	negative	5	Null	hit	F	5416	2	13935091	1	5500	1	0	next
conjunction	negative	30	Null	hit	F	7384	2	13965926	1	7500	1	0	next
disjunction	positive	30	S_green	incorrect	F	8152	2	14370286	1	8334	1	0	next
disjunction	positive	30	S_brown	hit	J	9524	2	14403954	1	9667	1	0	next
disjunction	positive	5	S_brown	hit	J	5724	2	14438957	1	5834	1	0	next
disjunction	positive	15	T_blue	hit	J	6076	2	14470125	1	6167	1	0	next
disjunction	negative	30	Null	hit	F	14733	2	14501627	1	14834	1	0	next
disjunction	positive	30	S_brown	hit	J	7365	2	14541797	1	7501	1	0	next
disjunction	negative	15	Null	hit	F	11494	2	14574632	1	11667	1	0	next
disjunction	positive	1	S_brown	hit	J	3774	2	14611634	1	3834	1	0	next
disjunction	positive	30	S_brown	hit	J	6284	2	14640803	1	6334	1	0	next
disjunction	positive	30	T_blue	hit	J	5658	2	14672472	1	5834	1	0	next
disjunction	positive	5	T_blue	hit	J	4727	2	14703640	1	4834	1	0	next
disjunction	positive	1	X_blue	hit	J	3518	2	14733809	1	3667	1	0	next
disjunction	positive	5	S_green	hit	J	6357	2	14762811	1	6500	1	0	next
disjunction	positive	1	X_blue	hit	J	6523	2	14794646	1	6667	1	0	next
disjunction	positive	1	T_blue	hit	J	4282	2	14826648	1	4334	1	0	next
disjunction	positive	1	X_blue	hit	J	4053	2	14856317	1	4167	1	0	next
disjunction	positive	5	S_brown	hit	J	5592	2	14885819	1	5667	1	0	next
disjunction	negative	5	Null	hit	F	8350	2	14916821	1	8501	1	0	next
disjunction	positive	5	X_blue	hit	J	4597	2	14950656	1	4667	1	0	next
disjunction	positive	30	S_brown	incorrect	F	9635	2	14980658	1	9667	1	0	next
disjunction	negative	15	Null	hit	F	12874	2	15015660	1	13001	1	0	next
disjunction	negative	15	Null	hit	F	13261	2	15053996	1	13334	1	0	next
disjunction	negative	5	Null	hit	F	8511	2	15092665	1	8667	1	0	next
disjunction	negative	15	Null	hit	F	5710	2	15126667	1	5834	1	0	next
disjunction	positive	1	T_blue	hit	J	5586	2	15157836	1	5667	1	0	next
disjunction	positive	5	S_brown	hit	J	4340	2	15188838	1	4500	1	0	next
disjunction	positive	15	T_blue	hit	J	4907	2	15218673	1	5000	1	0	next
disjunction	negative	15	Null	hit	F	7531	2	15249009	1	7667	1	0	next
disjunction	positive	15	X_blue	hit	J	4289	2	15282011	1	4334	1	0	next
disjunction	negative	5	Null	incorrect	J	10306	2	15311679	1	10501	1	0	next
disjunction	negative	30	Null	hit	F	10309	2	15347515	1	10501	1	0	next
disjunction	negative	1	Null	hit	F	7114	2	15383351	1	7167	1	0	next
disjunction	negative	5	Null	hit	F	5172	2	15415853	1	5334	1	0	next
disjunction	negative	5	Null	hit	F	5225	2	15446521	1	5334	1	0	next
disjunction	positive	5	T_blue	hit	J	5436	2	15477190	1	5500	1	0	next
disjunction	positive	30	X_blue	hit	J	4682	2	15508025	1	4834	1	0	next
disjunction	negative	1	Null	hit	F	5393	2	15538194	1	5500	1	0	next
disjunction	positive	15	S_brown	hit	J	5604	2	15569029	1	5667	1	0	next
disjunction	positive	5	T_blue	hit	J	4517	2	15600031	1	4667	1	0	next
disjunction	negative	5	Null	hit	F	6196	2	15630033	1	6334	1	0	next
disjunction	negative	30	Null	hit	F	12448	2	15661702	1	12501	1	0	next
disjunction	positive	5	T_blue	hit	J	4055	2	15699538	1	4167	1	0	next
disjunction	positive	1	S_green	hit	J	8316	2	15729039	1	8501	1	0	next
disjunction	positive	30	X_blue	hit	J	5038	2	15762875	1	5167	1	0	next
disjunction	positive	1	S_brown	hit	J	5101	2	15793377	1	5167	1	0	next
disjunction	positive	15	X_blue	hit	J	4677	2	15823879	1	4834	1	0	next
disjunction	negative	1	Null	incorrect	J	6187	2	15854048	1	6334	1	0	next
disjunction	positive	5	S_brown	hit	J	4763	2	15885716	1	4834	1	0	next
disjunction	positive	5	X_blue	hit	J	4512	2	15915885	1	4667	1	0	next
disjunction	negative	5	Null	hit	F	5393	2	15945887	1	5500	1	0	next
disjunction	negative	30	Null	hit	F	9602	2	15976722	1	9667	1	0	next
disjunction	positive	5	S_green	hit	J	4995	2	16011724	1	5167	1	0	next
disjunction	negative	1	Null	hit	F	5054	2	16042226	1	5167	1	0	next
disjunction	negative	5	Null	hit	F	7997	2	16072728	1	8167	1	0	next
disjunction	negative	15	Null	hit	F	8092	2	16106230	1	8167	1	0	next
disjunction	positive	1	X_blue	hit	J	5314	2	16139733	1	5500	1	0	next
disjunction	positive	5	S_green	hit	J	5677	2	16170568	1	5834	1	0	next
disjunction	negative	5	Null	hit	F	5708	2	16201736	1	5834	1	0	next
disjunction	negative	5	Null	hit	F	7020	2	16232905	1	7167	1	0	next
disjunction	positive	1	S_brown	hit	J	4443	2	16265407	1	4500	1	0	next
disjunction	positive	5	S_brown	hit	J	4364	2	16295243	1	4500	1	0	next
disjunction	positive	5	X_blue	hit	J	5409	2	16325078	1	5500	1	0	next
disjunction	negative	5	Null	hit	F	6580	2	16355913	1	6667	1	0	next
disjunction	negative	1	Null	hit	F	7057	2	16387915	1	7167	1	0	next
disjunction	positive	5	X_blue	hit	J	3834	2	16420417	1	4000	1	0	next
disjunction	positive	1	S_green	hit	J	4259	2	16449752	1	4334	1	0	next
disjunction	positive	15	S_brown	incorrect	F	6431	2	16479421	1	6500	1	0	next
disjunction	positive	1	S_green	hit	J	4515	2	16511256	1	4667	1	0	next
disjunction	positive	30	T_blue	hit	J	4919	2	16541258	1	5000	1	0	next
disjunction	positive	30	T_blue	hit	J	4660	2	16571594	1	4834	1	0	next
disjunction	negative	1	Null	hit	F	6972	2	16601762	1	7167	1	0	next
disjunction	negative	5	Null	hit	F	6155	2	16634264	1	6334	1	0	next
disjunction	negative	30	Null	hit	F	6963	2	16665933	1	7000	1	0	next
disjunction	negative	5	Null	hit	F	5188	2	16698268	1	5334	1	0	next
disjunction	positive	30	S_green	incorrect	F	5883	2	16728937	1	6000	1	0	next
disjunction	negative	15	Null	hit	F	9906	2	16760272	1	10001	1	0	next
disjunction	negative	1	Null	hit	F	6412	2	16795608	1	6500	1	0	next
disjunction	positive	15	X_blue	hit	J	3536	2	16827443	1	3667	1	0	next
disjunction	positive	30	S_brown	incorrect	F	6060	2	16856445	1	6167	1	0	next
disjunction	negative	1	Null	hit	F	6075	2	16887947	1	6167	1	0	next
disjunction	negative	1	Null	hit	F	4814	2	16919449	1	5000	1	0	next
disjunction	negative	5	Null	hit	F	5839	2	16949785	1	6000	1	0	next
disjunction	negative	30	Null	hit	F	5544	2	16981120	1	5667	1	0	next
disjunction	negative	1	Null	hit	F	4623	2	17012122	1	4667	1	0	next
disjunction	positive	1	S_green	hit	J	5022	2	17042124	1	5167	1	0	next
disjunction	negative	5	Null	hit	F	4762	2	17072626	1	4834	1	0	next
disjunction	positive	30	T_blue	hit	J	6113	2	17102794	1	6167	1	0	next
disjunction	negative	1	Null	hit	F	4851	2	17134296	1	5000	1	0	next
disjunction	positive	1	T_blue	hit	J	4118	2	17164632	1	4167	1	0	next
disjunction	negative	1	Null	hit	F	4856	2	17194134	1	5000	1	0	next
disjunction	positive	15	X_blue	hit	J	4761	2	17224469	1	4834	1	0	next
disjunction	positive	30	S_green	incorrect	F	4835	2	17254637	1	5000	1	0	next
disjunction	positive	1	T_blue	hit	J	4099	2	17284973	1	4167	1	0	next
disjunction	positive	15	S_brown	hit	J	7399	2	17314475	1	7500	1	0	next
disjunction	negative	30	Null	hit	F	6887	2	17347310	1	7000	1	0	next
disjunction	positive	30	X_blue	hit	J	4792	2	17379645	1	4834	1	0	next
disjunction	positive	1	T_blue	hit	J	3903	2	17409814	1	4000	1	0	next
disjunction	positive	15	X_blue	hit	J	5132	2	17439149	1	5167	1	0	next
disjunction	negative	1	Null	hit	F	6785	2	17469651	1	6834	1	0	next
disjunction	positive	30	T_blue	hit	J	4537	2	17501820	1	4667	1	0	next
disjunction	negative	5	Null	hit	F	5098	2	17531822	1	5167	1	0	next
disjunction	negative	15	Null	hit	F	5318	2	17562324	1	5500	1	0	next
disjunction	positive	15	S_green	incorrect	F	5202	2	17593159	1	5334	1	0	next
disjunction	negative	30	Null	hit	F	6532	2	17623828	1	6667	1	0	next
disjunction	negative	15	Null	hit	F	7814	2	17655830	1	8001	1	0	next
disjunction	positive	15	S_green	incorrect	F	5676	2	17689165	1	5834	1	0	next
disjunction	negative	15	Null	hit	F	11961	2	17720334	1	12001	1	0	next
disjunction	negative	30	Null	hit	F	14456	2	17757670	1	14501	1	0	next
disjunction	negative	15	Null	hit	F	7260	2	17797506	1	7334	1	0	next
disjunction	negative	30	Null	hit	F	7872	2	17830174	1	8001	1	0	next
disjunction	positive	15	S_green	hit	J	4777	2	17863510	1	4834	1	0	next
disjunction	negative	30	Null	hit	F	6931	2	17893678	1	7000	1	0	next
disjunction	negative	1	Null	hit	F	5314	2	17926014	1	5500	1	0	next
disjunction	positive	15	S_green	hit	J	6000	2	17956849	1	6167	1	0	next
disjunction	positive	15	S_green	hit	J	9699	2	17988351	1	9834	1	0	next
disjunction	positive	15	S_green	hit	J	8132	2	18023520	1	8167	1	0	next
disjunction	negative	15	Null	hit	F	8389	2	18057022	1	8501	1	0	next
disjunction	negative	30	Null	hit	F	8476	2	18090858	1	8667	1	0	next
disjunction	negative	1	Null	hit	F	4717	2	18124860	1	4834	1	0	next
disjunction	negative	15	Null	hit	F	5905	2	18155029	1	6000	1	0	next
disjunction	negative	1	Null	hit	F	5132	2	18186364	1	5167	1	0	next
disjunction	negative	30	Null	hit	F	6949	2	18216866	1	7000	1	0	next
disjunction	negative	15	Null	hit	F	8375	2	18249201	1	8501	1	0	next
disjunction	negative	30	Null	hit	F	10224	2	18283037	1	10334	1	0	next
disjunction	negative	15	Null	hit	F	6394	2	18318706	1	6500	1	0	next
disjunction	negative	30	Null	hit	F	11838	2	18350541	1	12001	1	0	next
disjunction	negative	15	Null	hit	F	10505	2	18387877	1	10667	1	0	next
disjunction	negative	30	Null	hit	F	7790	2	18423879	1	7834	1	0	next
disjunction	positive	5	S_brown	hit	J	8966	2	18594223	1	9001	1	0	next
disjunction	negative	30	Null	hit	F	8069	2	18628559	1	8167	1	0	next
disjunction	positive	15	S_brown	hit	J	8806	2	18662061	1	8834	1	0	next
disjunction	positive	1	S_brown	hit	J	4078	2	18696230	1	4167	1	0	next
disjunction	negative	30	Null	hit	F	6100	2	18725732	1	6167	1	0	next
disjunction	positive	30	X_blue	hit	J	5159	2	18757234	1	5334	1	0	next
disjunction	negative	15	Null	hit	F	8568	2	18787902	1	8667	1	0	next
disjunction	negative	15	Null	hit	F	9291	2	18821905	1	9334	1	0	next
disjunction	negative	5	Null	hit	F	5978	2	18856574	1	6167	1	0	next
disjunction	positive	1	T_blue	hit	J	3757	2	18888076	1	3834	1	0	next
disjunction	positive	15	S_brown	hit	J	5312	2	18917244	1	5500	1	0	next
disjunction	positive	30	S_green	hit	J	8394	2	18948079	1	8501	1	0	next
disjunction	positive	5	T_blue	hit	J	4160	2	18981915	1	4334	1	0	next
disjunction	negative	1	Null	incorrect	J	3936	2	19011583	1	4000	1	0	next
disjunction	negative	30	Null	hit	F	9638	2	19040919	1	9667	1	0	next
disjunction	negative	5	Null	hit	F	6795	2	19075921	1	6834	1	0	next
disjunction	negative	5	Null	hit	F	6790	2	19108090	1	6834	1	0	next
disjunction	positive	15	T_blue	hit	J	5340	2	19140258	1	5500	1	0	next
disjunction	negative	30	Null	hit	F	10346	2	19171094	1	10501	1	0	next
disjunction	negative	5	Null	hit	F	6512	2	19206929	1	6667	1	0	next
disjunction	positive	1	T_blue	hit	J	5869	2	19238931	1	6000	1	0	next
disjunction	positive	5	S_green	hit	J	4935	2	19270267	1	5000	1	0	next
disjunction	negative	15	Null	hit	F	5805	2	19300602	1	6000	1	0	next
disjunction	negative	5	Null	hit	F	6948	2	19331937	1	7000	1	0	next
disjunction	positive	1	S_brown	hit	J	4213	2	19364273	1	4334	1	0	next
disjunction	positive	1	S_green	hit	J	5105	2	19393941	1	5167	1	0	next
disjunction	positive	5	T_blue	incorrect	F	5006	2	19424443	1	5167	1	0	next
disjunction	positive	30	T_blue	hit	J	5068	2	19454945	1	5167	1	0	next
disjunction	negative	1	Null	hit	F	5440	2	19485447	1	5500	1	0	next
disjunction	positive	5	S_brown	hit	J	6286	2	19516283	1	6334	1	0	next
disjunction	positive	1	X_blue	hit	J	4220	2	19547951	1	4334	1	0	next
disjunction	positive	1	S_green	hit	J	4310	2	19577620	1	4500	1	0	next
disjunction	negative	1	Null	hit	F	6319	2	19607455	1	6501	1	0	next
disjunction	positive	15	S_green	hit	J	5040	2	19639290	1	5167	1	0	next
disjunction	positive	5	T_blue	hit	J	4145	2	19669792	1	4334	1	0	next
disjunction	negative	5	Null	incorrect	J	8553	2	19699461	1	8667	1	0	next
disjunction	positive	30	X_blue	hit	J	4793	2	19733463	1	4834	1	0	next
disjunction	negative	30	Null	hit	F	8064	2	19763632	1	8167	1	0	next
disjunction	negative	5	Null	hit	F	6726	2	19797134	1	6834	1	0	next
disjunction	positive	1	S_brown	hit	J	4317	2	19829303	1	4500	1	0	next
disjunction	positive	1	T_blue	hit	J	5519	2	19859138	1	5667	1	0	next
disjunction	negative	30	Null	hit	F	11481	2	19890140	1	11667	1	0	next
disjunction	negative	30	Null	hit	F	5357	2	19927142	1	5500	1	0	next
disjunction	negative	15	Null	hit	F	6845	2	19957978	1	7000	1	0	next
disjunction	positive	15	S_green	hit	J	7634	2	19990313	1	7667	1	0	next
disjunction	negative	1	Null	hit	F	5187	2	20023315	1	5334	1	0	next
disjunction	positive	30	S_brown	hit	J	6678	2	20053984	1	6834	1	0	next
disjunction	positive	15	S_green	hit	J	4430	2	20086152	1	4500	1	0	next
disjunction	negative	30	Null	hit	F	9636	2	20115988	1	9667	1	0	next
disjunction	negative	15	Null	hit	F	6317	2	20150990	1	6500	1	0	next
disjunction	negative	5	Null	incorrect	J	9200	2	20182825	1	9334	1	0	next
disjunction	negative	5	Null	hit	F	5573	2	20217494	1	5667	1	0	next
disjunction	negative	15	Null	hit	F	8171	2	20248496	1	8334	1	0	next
disjunction	positive	15	T_blue	hit	J	5702	2	20282165	1	5834	1	0	next
disjunction	negative	5	Null	hit	F	8295	2	20313334	1	8334	1	0	next
disjunction	positive	5	T_blue	hit	J	5348	2	20347003	1	5500	1	0	next
disjunction	positive	1	S_brown	hit	J	4273	2	20377838	1	4334	1	0	next
disjunction	negative	15	Null	hit	F	5328	2	20407506	1	5500	1	0	next
disjunction	positive	30	S_green	incorrect	F	5374	2	20438342	1	5500	1	0	next
disjunction	positive	1	X_blue	hit	J	4616	2	20469177	1	4667	1	0	next
disjunction	positive	1	X_blue	hit	J	3895	2	20499179	1	4000	1	0	next
disjunction	positive	5	S_brown	hit	J	7842	2	20528514	1	8001	1	0	next
disjunction	negative	1	Null	hit	F	5865	2	20561850	1	6000	1	0	next
disjunction	positive	15	T_blue	hit	J	4451	2	20593185	1	4500	1	0	next
disjunction	negative	15	Null	hit	F	4697	2	20623020	1	4834	1	0	next
disjunction	negative	15	Null	hit	F	5410	2	20653189	1	5500	1	0	next
disjunction	negative	15	Null	hit	F	11214	2	20684024	1	11334	1	0	next
disjunction	positive	1	X_blue	hit	J	4466	2	20720693	1	4500	1	0	next
disjunction	positive	1	T_blue	hit	J	4878	2	20750528	1	5000	1	0	next
disjunction	positive	30	S_green	hit	J	8780	2	20780864	1	8834	1	0	next
disjunction	positive	15	X_blue	hit	J	4690	2	20815033	1	4834	1	0	next
disjunction	positive	1	T_blue	hit	J	3965	2	20845201	1	4000	1	0	next
disjunction	negative	30	Null	hit	F	10632	2	20874536	1	10667	1	0	next
disjunction	negative	30	Null	hit	F	11112	2	20910539	1	11167	1	0	next
disjunction	negative	30	Null	hit	F	10924	2	20947041	1	11001	1	0	next
disjunction	positive	1	X_blue	hit	J	3390	2	20983377	1	3500	1	0	next
disjunction	negative	5	Null	hit	F	8799	2	21012212	1	8834	1	0	next
disjunction	positive	5	X_blue	hit	J	5987	2	21046381	1	6167	1	0	next
disjunction	negative	15	Null	hit	F	9205	2	21077883	1	9334	1	0	next
disjunction	positive	15	T_blue	hit	J	4619	2	21112552	1	4667	1	0	next
disjunction	negative	30	Null	hit	F	5989	2	21142554	1	6167	1	0	next
disjunction	positive	30	T_blue	hit	J	5834	2	21174056	1	6000	1	0	next
disjunction	positive	15	S_brown	hit	J	5700	2	21205391	1	5834	1	0	next
disjunction	negative	5	Null	hit	F	5092	2	21236560	1	5167	1	0	next
disjunction	positive	5	T_blue	hit	J	5473	2	21267062	1	5500	1	0	next
disjunction	positive	15	X_blue	hit	J	3597	2	21297897	1	3667	1	0	next
disjunction	negative	1	Null	hit	F	5157	2	21326899	1	5334	1	0	next
disjunction	negative	5	Null	hit	F	5528	2	21357567	1	5667	1	0	next
disjunction	positive	5	S_green	incorrect	F	4129	2	21388569	1	4167	1	0	next
disjunction	negative	15	Null	hit	F	8066	2	21418071	1	8167	1	0	next
disjunction	positive	15	S_green	hit	J	6564	2	21451573	1	6667	1	0	next
disjunction	positive	15	X_blue	hit	J	5283	2	21483575	1	5334	1	0	next
disjunction	positive	5	S_brown	hit	J	5175	2	21514244	1	5334	1	0	next
disjunction	positive	15	X_blue	hit	J	4908	2	21544913	1	5000	1	0	next
disjunction	negative	5	Null	hit	F	6412	2	21575248	1	6500	1	0	next
disjunction	negative	30	Null	hit	F	6418	2	21607083	1	6500	1	0	next
disjunction	positive	30	X_blue	hit	J	3864	2	21638919	1	4000	1	0	next
disjunction	negative	30	Null	hit	F	6210	2	21668254	1	6334	1	0	next
disjunction	positive	15	S_green	hit	J	5902	2	21699923	1	6000	1	0	next
disjunction	positive	30	S_brown	hit	J	4807	2	21731258	1	5000	1	0	next
disjunction	positive	30	S_green	hit	J	7433	2	21761593	1	7500	1	0	next
disjunction	positive	5	X_blue	hit	J	4038	2	21794429	1	4167	1	0	next
disjunction	negative	30	Null	hit	F	9097	2	21823931	1	9167	1	0	next
disjunction	negative	30	Null	hit	F	6278	2	21858433	1	6334	1	0	next
disjunction	negative	5	Null	hit	F	5328	2	21890102	1	5500	1	0	next
disjunction	negative	15	Null	hit	F	6172	2	21920937	1	6334	1	0	next
disjunction	positive	30	X_blue	hit	J	4746	2	21952606	1	4834	1	0	next
disjunction	positive	5	S_green	hit	J	4338	2	21982774	1	4500	1	0	next
disjunction	negative	15	Null	hit	F	5703	2	22012609	1	5834	1	0	next
disjunction	negative	1	Null	hit	F	7014	2	22043778	1	7167	1	0	next
disjunction	positive	5	X_blue	hit	J	3954	2	22076280	1	4000	1	0	next
disjunction	negative	5	Null	hit	F	6138	2	22105615	1	6334	1	0	next
disjunction	negative	15	Null	hit	F	5351	2	22137284	1	5500	1	0	next
disjunction	negative	1	Null	hit	F	4116	2	22168119	1	4167	1	0	next
disjunction	positive	30	S_green	hit	J	7895	2	22197621	1	8001	1	0	next
disjunction	negative	1	Null	hit	F	4800	2	22230957	1	4834	1	0	next
disjunction	positive	5	S_green	hit	J	4552	2	22261125	1	4667	1	0	next
disjunction	positive	30	S_brown	hit	J	6071	2	22291127	1	6167	1	0	next
disjunction	negative	1	Null	hit	F	5453	2	22322629	1	5500	1	0	next
disjunction	positive	30	S_brown	hit	J	5816	2	22353465	1	6000	1	0	next
disjunction	negative	1	Null	hit	F	4242	2	22384800	1	4334	1	0	next
disjunction	negative	1	Null	hit	F	5135	2	22414469	1	5334	1	0	next
disjunction	positive	30	S_brown	hit	J	11745	2	22445137	1	11834	1	0	next
disjunction	negative	15	Null	hit	F	8980	2	22482306	1	9167	1	0	next
disjunction	negative	1	Null	hit	F	5356	2	22516808	1	5500	1	0	next
disjunction	negative	1	Null	hit	F	5402	2	22547644	1	5500	1	0	next
disjunction	negative	1	Null	hit	F	4008	2	22578479	1	4167	1	0	next
disjunction	negative	1	Null	hit	F	4586	2	22607981	1	4667	1	0	next
conjunction	negative	5	Null	hit	F	8947	2	22958670	1	9001	1	0	next
conjunction	positive	5	T_green	incorrect	F	5171	2	22993006	1	5334	1	0	next
conjunction	negative	5	Null	hit	F	5383	2	23023674	1	5500	1	0	next
conjunction	negative	30	Null	hit	F	11830	2	23054510	1	12001	1	0	next
conjunction	positive	1	T_green	hit	J	3616	2	23091845	1	3667	1	0	next
conjunction	positive	1	T_green	hit	J	3252	2	23120847	1	3334	1	0	next
conjunction	positive	15	T_green	hit	J	5626	2	23149516	1	5667	1	0	next
conjunction	negative	1	Null	incorrect	J	3424	2	23180518	1	3500	1	0	next
conjunction	negative	15	Null	hit	F	10115	2	23209353	1	10167	1	0	next
conjunction	positive	30	T_green	incorrect	F	10288	2	23244855	1	10334	1	0	next
conjunction	negative	30	Null	hit	F	16860	2	23280524	1	17001	1	0	next
conjunction	negative	5	Null	hit	F	6525	2	23322860	1	6667	1	0	next
conjunction	negative	1	Null	hit	F	4767	2	23354862	1	4834	1	0	next
conjunction	positive	1	T_green	incorrect	F	3715	2	23385031	1	3834	1	0	next
conjunction	positive	1	T_green	hit	J	3988	2	23414199	1	4167	1	0	next
conjunction	positive	30	T_green	hit	J	16567	2	23443701	1	16668	1	0	next
conjunction	positive	1	T_green	hit	J	3844	2	23485704	1	4000	1	0	next
conjunction	positive	15	T_green	hit	J	5070	2	23515039	1	5167	1	0	next
conjunction	negative	30	Null	hit	F	9293	2	23545541	1	9334	1	0	next
conjunction	positive	1	T_green	hit	J	3743	2	23580210	1	3834	1	0	next
conjunction	negative	15	Null	hit	F	11215	2	23609379	1	11334	1	0	next
conjunction	positive	5	T_green	hit	J	3507	2	23646048	1	3667	1	0	next
conjunction	negative	1	Null	hit	F	4591	2	23675050	1	4667	1	0	next
conjunction	negative	30	Null	hit	F	16503	2	23705051	1	16668	1	0	next
conjunction	negative	15	Null	hit	F	11302	2	23747054	1	11501	1	0	next
conjunction	positive	5	T_green	hit	J	8388	2	23783890	1	8501	1	0	next
conjunction	negative	5	Null	hit	F	5755	2	23817725	1	5834	1	0	next
conjunction	negative	1	Null	hit	F	4666	2	23848894	1	4834	1	0	next
conjunction	positive	30	T_green	hit	J	9696	2	23879063	1	9834	1	0	next
conjunction	negative	15	Null	hit	F	9091	2	23914232	1	9167	1	0	next
conjunction	positive	1	T_green	hit	J	4507	2	23948734	1	4667	1	0	next
conjunction	positive	15	T_green	hit	J	11150	2	23978736	1	11334	1	0	next
conjunction	positive	15	T_green	hit	J	9363	2	24015405	1	9501	1	0	next
conjunction	negative	5	Null	hit	F	5883	2	24050240	1	6000	1	0	next
conjunction	positive	15	T_green	hit	J	5110	2	24081576	1	5167	1	0	next
conjunction	negative	1	Null	hit	F	5812	2	24112078	1	6000	1	0	next
conjunction	positive	1	T_green	hit	J	4394	2	24143413	1	4500	1	0	next
conjunction	positive	1	T_green	hit	J	5122	2	24173248	1	5167	1	0	next
conjunction	positive	1	T_green	hit	J	4224	2	24203750	1	4334	1	0	next
conjunction	positive	5	T_green	hit	J	5431	2	24233419	1	5500	1	0	next
conjunction	negative	1	Null	hit	F	5959	2	24264254	1	6000	1	0	next
conjunction	positive	5	T_green	hit	J	6142	2	24295589	1	6334	1	0	next
conjunction	negative	1	Null	hit	F	4873	2	24327258	1	5000	1	0	next
conjunction	positive	30	T_green	hit	J	8618	2	24357593	1	8667	1	0	next
conjunction	negative	30	Null	hit	F	15898	2	24391595	1	16001	1	0	next
conjunction	negative	1	Null	hit	F	4803	2	24432931	1	4834	1	0	next
conjunction	positive	15	T_green	incorrect	F	10480	2	24463100	1	10667	1	0	next
conjunction	negative	5	Null	hit	F	6474	2	24499102	1	6667	1	0	next
conjunction	positive	1	T_green	hit	J	4237	2	24531104	1	4334	1	0	next
conjunction	negative	15	Null	hit	F	7525	2	24560773	1	7667	1	0	next
conjunction	negative	5	Null	hit	F	5881	2	24593775	1	6000	1	0	next
conjunction	positive	30	T_green	hit	J	8948	2	24625110	1	9001	1	0	next
conjunction	negative	15	Null	hit	F	14137	2	24659446	1	14168	1	0	next
conjunction	positive	1	T_green	hit	J	4394	2	24698949	1	4500	1	0	next
conjunction	negative	15	Null	hit	F	9277	2	24728784	1	9334	1	0	next
conjunction	negative	30	Null	hit	F	19894	2	24763453	1	20001	1	0	next
conjunction	positive	5	T_green	hit	J	5434	2	24808789	1	5500	1	0	next
conjunction	positive	15	T_green	incorrect	F	7880	2	24839624	1	8001	1	0	next
conjunction	negative	30	Null	hit	F	12944	2	24872960	1	13001	1	0	next
conjunction	positive	15	T_green	hit	J	9814	2	24911296	1	10001	1	0	next
conjunction	positive	15	T_green	hit	J	8396	2	24946631	1	8501	1	0	next
conjunction	positive	5	T_green	hit	J	8000	2	24980467	1	8167	1	0	next
conjunction	positive	1	T_green	hit	J	3939	2	25013969	1	4000	1	0	next
conjunction	negative	1	Null	hit	F	5164	2	25043304	1	5334	1	0	next
conjunction	negative	15	Null	hit	F	10177	2	25073973	1	10334	1	0	next
conjunction	negative	15	Null	hit	F	6674	2	25109642	1	6834	1	0	next
conjunction	negative	15	Null	hit	F	10982	2	25141810	1	11167	1	0	next
conjunction	positive	1	T_green	hit	J	5679	2	25178313	1	5834	1	0	next
conjunction	positive	5	T_green	hit	J	9072	2	25209481	1	9167	1	0	next
conjunction	positive	1	T_green	hit	J	5130	2	25243984	1	5167	1	0	next
conjunction	positive	5	T_green	hit	J	6309	2	25274485	1	6500	1	0	next
conjunction	positive	15	T_green	hit	J	11115	2	25306321	1	11167	1	0	next
conjunction	negative	15	Null	hit	F	9175	2	25342823	1	9334	1	0	next
conjunction	negative	15	Null	hit	F	9230	2	25377492	1	9334	1	0	next
conjunction	positive	30	T_green	incorrect	F	8637	2	25412161	1	8667	1	0	next
conjunction	positive	1	T_green	hit	J	4238	2	25446163	1	4334	1	0	next
conjunction	positive	15	T_green	incorrect	F	15688	2	25475832	1	15834	1	0	next
conjunction	negative	5	Null	hit	F	9243	2	25517001	1	9334	1	0	next
conjunction	negative	1	Null	hit	F	5453	2	25551670	1	5500	1	0	next
conjunction	negative	15	Null	hit	F	10137	2	25582505	1	10167	1	0	next
conjunction	positive	5	T_green	hit	J	8717	2	25618008	1	8834	1	0	next
conjunction	negative	5	Null	hit	F	6387	2	25652176	1	6500	1	0	next
conjunction	positive	30	T_green	hit	J	4953	2	25684012	1	5000	1	0	next
conjunction	positive	15	T_green	hit	J	4859	2	25714347	1	5000	1	0	next
conjunction	negative	1	Null	hit	F	4604	2	25744682	1	4667	1	0	next
conjunction	negative	5	Null	incorrect	J	4843	2	25774684	1	5000	1	0	next
conjunction	negative	5	Null	hit	F	7310	2	25805020	1	7501	1	0	next
conjunction	negative	30	Null	hit	F	14794	2	25837855	1	14834	1	0	next
conjunction	negative	5	Null	hit	F	5505	2	25878024	1	5667	1	0	next
conjunction	negative	30	Null	hit	F	13546	2	25909026	1	13668	1	0	next
conjunction	negative	1	Null	hit	F	5102	2	25948029	1	5167	1	0	next
conjunction	positive	15	T_green	hit	J	5162	2	25978531	1	5334	1	0	next
conjunction	positive	30	T_green	incorrect	F	15936	2	26009199	1	16001	1	0	next
conjunction	positive	5	T_green	hit	J	4359	2	26050535	1	4500	1	0	next
conjunction	positive	15	T_green	hit	J	11975	2	26080371	1	12167	1	0	next
conjunction	negative	15	Null	hit	F	12223	2	26117873	1	12334	1	0	next
conjunction	positive	30	T_green	hit	J	10556	2	26155542	1	10667	1	0	next
conjunction	positive	5	T_green	hit	J	6233	2	26191544	1	6334	1	0	next
conjunction	negative	5	Null	hit	F	7366	2	26223213	1	7500	1	0	next
conjunction	negative	5	Null	hit	F	6691	2	26256048	1	6834	1	0	next
conjunction	positive	15	T_green	hit	J	5403	2	26288217	1	5500	1	0	next
conjunction	negative	15	Null	hit	F	12652	2	26319053	1	12834	1	0	next
conjunction	positive	15	T_green	incorrect	F	12723	2	26357222	1	12834	1	0	next
conjunction	positive	5	T_green	hit	J	4792	2	26395391	1	4834	1	0	next
conjunction	negative	1	Null	hit	F	4388	2	26425559	1	4500	1	0	next
conjunction	positive	30	T_green	hit	J	7036	2	26455395	1	7167	1	0	next
conjunction	positive	30	T_green	hit	J	6049	2	26487897	1	6167	1	0	next
conjunction	positive	5	T_green	hit	J	5588	2	26519399	1	5667	1	0	next
conjunction	negative	1	Null	hit	F	4674	2	26550401	1	4834	1	0	next
conjunction	positive	30	T_green	hit	J	19780	2	26580569	1	19835	1	0	next
conjunction	negative	1	Null	hit	F	5170	2	26625739	1	5334	1	0	next
conjunction	positive	30	T_green	hit	J	14022	2	26656408	1	14168	1	0	next
conjunction	negative	1	Null	hit	F	4601	2	26695910	1	4667	1	0	next
conjunction	negative	30	Null	hit	F	15079	2	26725912	1	15168	1	0	next
conjunction	positive	5	T_green	hit	J	9938	2	26766415	1	10001	1	0	next
conjunction	positive	5	T_green	hit	J	4843	2	26801750	1	5000	1	0	next
conjunction	negative	30	Null	hit	F	15150	2	26832085	1	15334	1	0	next
conjunction	positive	30	T_green	hit	J	19282	2	26872755	1	19335	1	0	next
conjunction	negative	15	Null	hit	F	10939	2	26917424	1	11001	1	0	next
conjunction	negative	30	Null	hit	F	11399	2	26953760	1	11501	1	0	next
conjunction	negative	30	Null	hit	F	12483	2	26990596	1	12667	1	0	next
conjunction	positive	30	T_green	hit	J	6002	2	27028598	1	6167	1	0	next
conjunction	positive	30	T_green	hit	J	4740	2	27060100	1	4834	1	0	next
conjunction	negative	30	Null	hit	F	15853	2	27090269	1	16001	1	0	next
conjunction	negative	30	Null	hit	F	16917	2	27131605	1	17001	1	0	next
conjunction	negative	30	Null	hit	F	13944	2	27173941	1	14001	1	0	next
conjunction	negative	5	Null	hit	F	9167	2	27213277	1	9334	1	0	next
conjunction	negative	5	Null	hit	F	9225	2	27247945	1	9334	1	0	next
